trial_number,start_row,end_row,num_events,states_sequence,states_detailed,MagEntry,On1A1,Delta,ITI_start,T_Premat,ITI_premat_delta,CorrectResp,IncorrectResp,Omission,cue_on,t_correct,latency_cue_onset,T_IncorrectResp,latency_incorrect_cue_onset
1,4,20,17,MagEntry -> On1A1 -> MagEntry -> ITI2sec -> Off1A1 -> ITI2sec -> RandomHole -> RandomHole -> hole1 -> hole1 -> Holdhole1 -> Holdhole1 -> Omission -> Omission -> TimeOut -> TimeOut -> MagEntry,"[{""actual_row"": 4, ""state"": ""MagEntry"", ""cat"": ""Entry"", ""seconds"": 0, ""milliseconds"": 5, ""display"": NaN}, {""actual_row"": 5, ""state"": ""On1A1"", ""cat"": ""Input"", ""seconds"": 3, ""milliseconds"": 575, ""display"": NaN}, {""actual_row"": 6, ""state"": ""MagEntry"", ""cat"": ""Exit"", ""seconds"": 3, ""milliseconds"": 575, ""display"": ""1""}, {""actual_row"": 7, ""state"": ""ITI2sec"", ""cat"": ""Entry"", ""seconds"": 3, ""milliseconds"": 575, ""display"": NaN}, {""actual_row"": 8, ""state"": ""Off1A1"", ""cat"": ""Input"", ""seconds"": 3, ""milliseconds"": 915, ""display"": NaN}, {""actual_row"": 9, ""state"": ""ITI2sec"", ""cat"": ""Exit"", ""seconds"": 5, ""milliseconds"": 580, ""display"": ""Time""}, {""actual_row"": 10, ""state"": ""RandomHole"", ""cat"": ""Entry"", ""seconds"": 5, ""milliseconds"": 580, ""display"": NaN}, {""actual_row"": 11, ""state"": ""RandomHole"", ""cat"": ""Exit"", ""seconds"": 5, ""milliseconds"": 590, ""display"": ""Time""}, {""actual_row"": 12, ""state"": ""hole1"", ""cat"": ""Entry"", ""seconds"": 5, ""milliseconds"": 590, ""display"": NaN}, {""actual_row"": 13, ""state"": ""hole1"", ""cat"": ""Exit"", ""seconds"": 7, ""milliseconds"": 95, ""display"": ""Time""}, {""actual_row"": 14, ""state"": ""Holdhole1"", ""cat"": ""Entry"", ""seconds"": 7, ""milliseconds"": 95, ""display"": NaN}, {""actual_row"": 15, ""state"": ""Holdhole1"", ""cat"": ""Exit"", ""seconds"": 8, ""milliseconds"": 600, ""display"": ""Time""}, {""actual_row"": 16, ""state"": ""Omission"", ""cat"": ""Entry"", ""seconds"": 8, ""milliseconds"": 600, ""display"": NaN}, {""actual_row"": 17, ""state"": ""Omission"", ""cat"": ""Exit"", ""seconds"": 8, ""milliseconds"": 610, ""display"": ""Time""}, {""actual_row"": 18, ""state"": ""TimeOut"", ""cat"": ""Entry"", ""seconds"": 8, ""milliseconds"": 610, ""display"": NaN}, {""actual_row"": 19, ""state"": ""TimeOut"", ""cat"": ""Exit"", ""seconds"": 13, ""milliseconds"": 615, ""display"": ""Time""}, {""actual_row"": 20, ""state"": ""MagEntry"", ""cat"": ""Entry"", ""seconds"": 13, ""milliseconds"": 615, ""display"": NaN}]",0.5,3.575,3.57,3.575,0.0,,,,Omission,5.59,,,,
2,20,46,27,MagEntry -> On1A1 -> MagEntry -> ITI2sec -> Off1A1 -> On1A1 -> ITI2sec -> RandomHole -> RandomHole -> hole3 -> Off1A1 -> hole3 -> Holdhole3 -> Holdhole3 -> Omission -> Omission -> TimeOut -> On1A4 -> Off1A4 -> On1A1 -> Off1A1 -> On1A1 -> Off1A1 -> On1A1 -> Off1A1 -> TimeOut -> MagEntry,"[{""actual_row"": 20, ""state"": ""MagEntry"", ""cat"": ""Entry"", ""seconds"": 13, ""milliseconds"": 615, ""display"": NaN}, {""actual_row"": 21, ""state"": ""On1A1"", ""cat"": ""Input"", ""seconds"": 63, ""milliseconds"": 715, ""display"": NaN}, {""actual_row"": 22, ""state"": ""MagEntry"", ""cat"": ""Exit"", ""seconds"": 63, ""milliseconds"": 715, ""display"": ""1""}, {""actual_row"": 23, ""state"": ""ITI2sec"", ""cat"": ""Entry"", ""seconds"": 63, ""milliseconds"": 715, ""display"": NaN}, {""actual_row"": 24, ""state"": ""Off1A1"", ""cat"": ""Input"", ""seconds"": 65, ""milliseconds"": 35, ""display"": NaN}, {""actual_row"": 25, ""state"": ""On1A1"", ""cat"": ""Input"", ""seconds"": 65, ""milliseconds"": 160, ""display"": NaN}, {""actual_row"": 26, ""state"": ""ITI2sec"", ""cat"": ""Exit"", ""seconds"": 65, ""milliseconds"": 720, ""display"": ""Time""}, {""actual_row"": 27, ""state"": ""RandomHole"", ""cat"": ""Entry"", ""seconds"": 65, ""milliseconds"": 720, ""display"": NaN}, {""actual_row"": 28, ""state"": ""RandomHole"", ""cat"": ""Exit"", ""seconds"": 65, ""milliseconds"": 730, ""display"": ""Time""}, {""actual_row"": 29, ""state"": ""hole3"", ""cat"": ""Entry"", ""seconds"": 65, ""milliseconds"": 730, ""display"": NaN}, {""actual_row"": 30, ""state"": ""Off1A1"", ""cat"": ""Input"", ""seconds"": 67, ""milliseconds"": 126, ""display"": NaN}, {""actual_row"": 31, ""state"": ""hole3"", ""cat"": ""Exit"", ""seconds"": 67, ""milliseconds"": 235, ""display"": ""Time""}, {""actual_row"": 32, ""state"": ""Holdhole3"", ""cat"": ""Entry"", ""seconds"": 67, ""milliseconds"": 235, ""display"": NaN}, {""actual_row"": 33, ""state"": ""Holdhole3"", ""cat"": ""Exit"", ""seconds"": 68, ""milliseconds"": 235, ""display"": ""Time""}, {""actual_row"": 34, ""state"": ""Omission"", ""cat"": ""Entry"", ""seconds"": 68, ""milliseconds"": 235, ""display"": NaN}, {""actual_row"": 35, ""state"": ""Omission"", ""cat"": ""Exit"", ""seconds"": 68, ""milliseconds"": 245, ""display"": ""Time""}, {""actual_row"": 36, ""state"": ""TimeOut"", ""cat"": ""Entry"", ""seconds"": 68, ""milliseconds"": 245, ""display"": NaN}, {""actual_row"": 37, ""state"": ""On1A4"", ""cat"": ""Input"", ""seconds"": 68, ""milliseconds"": 250, ""display"": NaN}, {""actual_row"": 38, ""state"": ""Off1A4"", ""cat"": ""Input"", ""seconds"": 69, ""milliseconds"": 565, ""display"": NaN}, {""actual_row"": 39, ""state"": ""On1A1"", ""cat"": ""Input"", ""seconds"": 70, ""milliseconds"": 585, ""display"": NaN}, {""actual_row"": 40, ""state"": ""Off1A1"", ""cat"": ""Input"", ""seconds"": 70, ""milliseconds"": 925, ""display"": NaN}, {""actual_row"": 41, ""state"": ""On1A1"", ""cat"": ""Input"", ""seconds"": 71, ""milliseconds"": 50, ""display"": NaN}, {""actual_row"": 42, ""state"": ""Off1A1"", ""cat"": ""Input"", ""seconds"": 71, ""milliseconds"": 390, ""display"": NaN}, {""actual_row"": 43, ""state"": ""On1A1"", ""cat"": ""Input"", ""seconds"": 71, ""milliseconds"": 505, ""display"": NaN}, {""actual_row"": 44, ""state"": ""Off1A1"", ""cat"": ""Input"", ""seconds"": 71, ""milliseconds"": 845, ""display"": NaN}, {""actual_row"": 45, ""state"": ""TimeOut"", ""cat"": ""Exit"", ""seconds"": 73, ""milliseconds"": 250, ""display"": ""Time""}, {""actual_row"": 46, ""state"": ""MagEntry"", ""cat"": ""Entry"", ""seconds"": 73, ""milliseconds"": 250, ""display"": NaN}]",13.615,63.715,50.1,63.715,0.0,,,,Omission,65.73,,,,
3,46,70,25,MagEntry -> On1A3 -> On1A4 -> Off1A3 -> Off1A4 -> On1A1 -> MagEntry -> ITI2sec -> Off1A1 -> On1A1 -> Off1A1 -> On1A1 -> ITI2sec -> RandomHole -> RandomHole -> hole4 -> Off1A1 -> hole4 -> Holdhole4 -> On1A2 -> On1A3 -> Holdhole4 -> CorrectResp -> CorrectResp -> MagEntry,"[{""actual_row"": 46, ""state"": ""MagEntry"", ""cat"": ""Entry"", ""seconds"": 73, ""milliseconds"": 250, ""display"": NaN}, {""actual_row"": 47, ""state"": ""On1A3"", ""cat"": ""Input"", ""seconds"": 80, ""milliseconds"": 0, ""display"": NaN}, {""actual_row"": 48, ""state"": ""On1A4"", ""cat"": ""Input"", ""seconds"": 80, ""milliseconds"": 0, ""display"": NaN}, {""actual_row"": 49, ""state"": ""Off1A3"", ""cat"": ""Input"", ""seconds"": 80, ""milliseconds"": 990, ""display"": NaN}, {""actual_row"": 50, ""state"": ""Off1A4"", ""cat"": ""Input"", ""seconds"": 80, ""milliseconds"": 990, ""display"": NaN}, {""actual_row"": 51, ""state"": ""On1A1"", ""cat"": ""Input"", ""seconds"": 81, ""milliseconds"": 780, ""display"": NaN}, {""actual_row"": 52, ""state"": ""MagEntry"", ""cat"": ""Exit"", ""seconds"": 81, ""milliseconds"": 780, ""display"": ""1""}, {""actual_row"": 53, ""state"": ""ITI2sec"", ""cat"": ""Entry"", ""seconds"": 81, ""milliseconds"": 780, ""display"": NaN}, {""actual_row"": 54, ""state"": ""Off1A1"", ""cat"": ""Input"", ""seconds"": 82, ""milliseconds"": 445, ""display"": NaN}, {""actual_row"": 55, ""state"": ""On1A1"", ""cat"": ""Input"", ""seconds"": 82, ""milliseconds"": 860, ""display"": NaN}, {""actual_row"": 56, ""state"": ""Off1A1"", ""cat"": ""Input"", ""seconds"": 83, ""milliseconds"": 200, ""display"": NaN}, {""actual_row"": 57, ""state"": ""On1A1"", ""cat"": ""Input"", ""seconds"": 83, ""milliseconds"": 240, ""display"": NaN}, {""actual_row"": 58, ""state"": ""ITI2sec"", ""cat"": ""Exit"", ""seconds"": 83, ""milliseconds"": 785, ""display"": ""Time""}, {""actual_row"": 59, ""state"": ""RandomHole"", ""cat"": ""Entry"", ""seconds"": 83, ""milliseconds"": 785, ""display"": NaN}, {""actual_row"": 60, ""state"": ""RandomHole"", ""cat"": ""Exit"", ""seconds"": 83, ""milliseconds"": 795, ""display"": ""Time""}, {""actual_row"": 61, ""state"": ""hole4"", ""cat"": ""Entry"", ""seconds"": 83, ""milliseconds"": 795, ""display"": NaN}, {""actual_row"": 62, ""state"": ""Off1A1"", ""cat"": ""Input"", ""seconds"": 84, ""milliseconds"": 560, ""display"": NaN}, {""actual_row"": 63, ""state"": ""hole4"", ""cat"": ""Exit"", ""seconds"": 85, ""milliseconds"": 300, ""display"": ""Time""}, {""actual_row"": 64, ""state"": ""Holdhole4"", ""cat"": ""Entry"", ""seconds"": 85, ""milliseconds"": 300, ""display"": NaN}, {""actual_row"": 65, ""state"": ""On1A2"", ""cat"": ""Input"", ""seconds"": 85, ""milliseconds"": 400, ""display"": NaN}, {""actual_row"": 66, ""state"": ""On1A3"", ""cat"": ""Input"", ""seconds"": 85, ""milliseconds"": 400, ""display"": NaN}, {""actual_row"": 67, ""state"": ""Holdhole4"", ""cat"": ""Exit"", ""seconds"": 85, ""milliseconds"": 400, ""display"": ""3""}, {""actual_row"": 68, ""state"": ""CorrectResp"", ""cat"": ""Entry"", ""seconds"": 85, ""milliseconds"": 400, ""display"": NaN}, {""actual_row"": 69, ""state"": ""CorrectResp"", ""cat"": ""Exit"", ""seconds"": 85, ""milliseconds"": 405, ""display"": ""Time""}, {""actual_row"": 70, ""state"": ""MagEntry"", ""cat"": ""Entry"", ""seconds"": 85, ""milliseconds"": 405, ""display"": NaN}]",73.25,81.78,8.52,81.78,0.0,,CorrectResp,,,83.795,85.4,1.209,,
4,70,98,29,MagEntry -> Off1A2 -> Off1A3 -> On1A1 -> MagEntry -> ITI2sec -> Off1A1 -> ITI2sec -> RandomHole -> RandomHole -> hole5 -> hole5 -> Holdhole5 -> Holdhole5 -> Omission -> Omission -> TimeOut -> On1A3 -> Off1A3 -> On1A3 -> Off1A3 -> On1A4 -> Off1A4 -> On1A2 -> On1A3 -> Off1A2 -> Off1A3 -> TimeOut -> MagEntry,"[{""actual_row"": 70, ""state"": ""MagEntry"", ""cat"": ""Entry"", ""seconds"": 85, ""milliseconds"": 405, ""display"": NaN}, {""actual_row"": 71, ""state"": ""Off1A2"", ""cat"": ""Input"", ""seconds"": 86, ""milliseconds"": 70, ""display"": NaN}, {""actual_row"": 72, ""state"": ""Off1A3"", ""cat"": ""Input"", ""seconds"": 86, ""milliseconds"": 70, ""display"": NaN}, {""actual_row"": 73, ""state"": ""On1A1"", ""cat"": ""Input"", ""seconds"": 86, ""milliseconds"": 305, ""display"": NaN}, {""actual_row"": 74, ""state"": ""MagEntry"", ""cat"": ""Exit"", ""seconds"": 86, ""milliseconds"": 305, ""display"": ""1""}, {""actual_row"": 75, ""state"": ""ITI2sec"", ""cat"": ""Entry"", ""seconds"": 86, ""milliseconds"": 305, ""display"": NaN}, {""actual_row"": 76, ""state"": ""Off1A1"", ""cat"": ""Input"", ""seconds"": 87, ""milliseconds"": 620, ""display"": NaN}, {""actual_row"": 77, ""state"": ""ITI2sec"", ""cat"": ""Exit"", ""seconds"": 88, ""milliseconds"": 310, ""display"": ""Time""}, {""actual_row"": 78, ""state"": ""RandomHole"", ""cat"": ""Entry"", ""seconds"": 88, ""milliseconds"": 310, ""display"": NaN}, {""actual_row"": 79, ""state"": ""RandomHole"", ""cat"": ""Exit"", ""seconds"": 88, ""milliseconds"": 320, ""display"": ""Time""}, {""actual_row"": 80, ""state"": ""hole5"", ""cat"": ""Entry"", ""seconds"": 88, ""milliseconds"": 320, ""display"": NaN}, {""actual_row"": 81, ""state"": ""hole5"", ""cat"": ""Exit"", ""seconds"": 89, ""milliseconds"": 825, ""display"": ""Time""}, {""actual_row"": 82, ""state"": ""Holdhole5"", ""cat"": ""Entry"", ""seconds"": 89, ""milliseconds"": 825, ""display"": NaN}, {""actual_row"": 83, ""state"": ""Holdhole5"", ""cat"": ""Exit"", ""seconds"": 91, ""milliseconds"": 330, ""display"": ""Time""}, {""actual_row"": 84, ""state"": ""Omission"", ""cat"": ""Entry"", ""seconds"": 91, ""milliseconds"": 330, ""display"": NaN}, {""actual_row"": 85, ""state"": ""Omission"", ""cat"": ""Exit"", ""seconds"": 91, ""milliseconds"": 340, ""display"": ""Time""}, {""actual_row"": 86, ""state"": ""TimeOut"", ""cat"": ""Entry"", ""seconds"": 91, ""milliseconds"": 340, ""display"": NaN}, {""actual_row"": 87, ""state"": ""On1A3"", ""cat"": ""Input"", ""seconds"": 94, ""milliseconds"": 145, ""display"": NaN}, {""actual_row"": 88, ""state"": ""Off1A3"", ""cat"": ""Input"", ""seconds"": 94, ""milliseconds"": 485, ""display"": NaN}, {""actual_row"": 89, ""state"": ""On1A3"", ""cat"": ""Input"", ""seconds"": 94, ""milliseconds"": 500, ""display"": NaN}, {""actual_row"": 90, ""state"": ""Off1A3"", ""cat"": ""Input"", ""seconds"": 94, ""milliseconds"": 840, ""display"": NaN}, {""actual_row"": 91, ""state"": ""On1A4"", ""cat"": ""Input"", ""seconds"": 94, ""milliseconds"": 985, ""display"": NaN}, {""actual_row"": 92, ""state"": ""Off1A4"", ""cat"": ""Input"", ""seconds"": 95, ""milliseconds"": 325, ""display"": NaN}, {""actual_row"": 93, ""state"": ""On1A2"", ""cat"": ""Input"", ""seconds"": 95, ""milliseconds"": 350, ""display"": NaN}, {""actual_row"": 94, ""state"": ""On1A3"", ""cat"": ""Input"", ""seconds"": 95, ""milliseconds"": 350, ""display"": NaN}, {""actual_row"": 95, ""state"": ""Off1A2"", ""cat"": ""Input"", ""seconds"": 96, ""milliseconds"": 15, ""display"": NaN}, {""actual_row"": 96, ""state"": ""Off1A3"", ""cat"": ""Input"", ""seconds"": 96, ""milliseconds"": 15, ""display"": NaN}, {""actual_row"": 97, ""state"": ""TimeOut"", ""cat"": ""Exit"", ""seconds"": 96, ""milliseconds"": 345, ""display"": ""Time""}, {""actual_row"": 98, ""state"": ""MagEntry"", ""cat"": ""Entry"", ""seconds"": 96, ""milliseconds"": 345, ""display"": NaN}]",85.405,86.305,0.9,86.305,0.0,,,,Omission,88.32,,,,
5,98,124,27,MagEntry -> On1A4 -> Off1A4 -> On1A4 -> Off1A4 -> On1A2 -> On1A3 -> Off1A2 -> Off1A3 -> On1A3 -> On1A4 -> Off1A3 -> Off1A4 -> On1A1 -> MagEntry -> ITI2sec -> Off1A1 -> On1A3 -> ITI2sec -> Premature -> Premature -> TimeOut -> Off1A3 -> On1A3 -> Off1A3 -> TimeOut -> MagEntry,"[{""actual_row"": 98, ""state"": ""MagEntry"", ""cat"": ""Entry"", ""seconds"": 96, ""milliseconds"": 345, ""display"": NaN}, {""actual_row"": 99, ""state"": ""On1A4"", ""cat"": ""Input"", ""seconds"": 111, ""milliseconds"": 885, ""display"": NaN}, {""actual_row"": 100, ""state"": ""Off1A4"", ""cat"": ""Input"", ""seconds"": 112, ""milliseconds"": 550, ""display"": NaN}, {""actual_row"": 101, ""state"": ""On1A4"", ""cat"": ""Input"", ""seconds"": 122, ""milliseconds"": 940, ""display"": NaN}, {""actual_row"": 102, ""state"": ""Off1A4"", ""cat"": ""Input"", ""seconds"": 123, ""milliseconds"": 605, ""display"": NaN}, {""actual_row"": 103, ""state"": ""On1A2"", ""cat"": ""Input"", ""seconds"": 123, ""milliseconds"": 720, ""display"": NaN}, {""actual_row"": 104, ""state"": ""On1A3"", ""cat"": ""Input"", ""seconds"": 123, ""milliseconds"": 720, ""display"": NaN}, {""actual_row"": 105, ""state"": ""Off1A2"", ""cat"": ""Input"", ""seconds"": 124, ""milliseconds"": 385, ""display"": NaN}, {""actual_row"": 106, ""state"": ""Off1A3"", ""cat"": ""Input"", ""seconds"": 124, ""milliseconds"": 385, ""display"": NaN}, {""actual_row"": 107, ""state"": ""On1A3"", ""cat"": ""Input"", ""seconds"": 124, ""milliseconds"": 575, ""display"": NaN}, {""actual_row"": 108, ""state"": ""On1A4"", ""cat"": ""Input"", ""seconds"": 124, ""milliseconds"": 575, ""display"": NaN}, {""actual_row"": 109, ""state"": ""Off1A3"", ""cat"": ""Input"", ""seconds"": 125, ""milliseconds"": 565, ""display"": NaN}, {""actual_row"": 110, ""state"": ""Off1A4"", ""cat"": ""Input"", ""seconds"": 125, ""milliseconds"": 565, ""display"": NaN}, {""actual_row"": 111, ""state"": ""On1A1"", ""cat"": ""Input"", ""seconds"": 131, ""milliseconds"": 210, ""display"": NaN}, {""actual_row"": 112, ""state"": ""MagEntry"", ""cat"": ""Exit"", ""seconds"": 131, ""milliseconds"": 210, ""display"": ""1""}, {""actual_row"": 113, ""state"": ""ITI2sec"", ""cat"": ""Entry"", ""seconds"": 131, ""milliseconds"": 210, ""display"": NaN}, {""actual_row"": 114, ""state"": ""Off1A1"", ""cat"": ""Input"", ""seconds"": 131, ""milliseconds"": 875, ""display"": NaN}, {""actual_row"": 115, ""state"": ""On1A3"", ""cat"": ""Input"", ""seconds"": 133, ""milliseconds"": 90, ""display"": NaN}, {""actual_row"": 116, ""state"": ""ITI2sec"", ""cat"": ""Exit"", ""seconds"": 133, ""milliseconds"": 90, ""display"": ""3""}, {""actual_row"": 117, ""state"": ""Premature"", ""cat"": ""Entry"", ""seconds"": 133, ""milliseconds"": 90, ""display"": NaN}, {""actual_row"": 118, ""state"": ""Premature"", ""cat"": ""Exit"", ""seconds"": 133, ""milliseconds"": 95, ""display"": ""Time""}, {""actual_row"": 119, ""state"": ""TimeOut"", ""cat"": ""Entry"", ""seconds"": 133, ""milliseconds"": 95, ""display"": NaN}, {""actual_row"": 120, ""state"": ""Off1A3"", ""cat"": ""Input"", ""seconds"": 133, ""milliseconds"": 430, ""display"": NaN}, {""actual_row"": 121, ""state"": ""On1A3"", ""cat"": ""Input"", ""seconds"": 133, ""milliseconds"": 475, ""display"": NaN}, {""actual_row"": 122, ""state"": ""Off1A3"", ""cat"": ""Input"", ""seconds"": 134, ""milliseconds"": 140, ""display"": NaN}, {""actual_row"": 123, ""state"": ""TimeOut"", ""cat"": ""Exit"", ""seconds"": 138, ""milliseconds"": 100, ""display"": ""Time""}, {""actual_row"": 124, ""state"": ""MagEntry"", ""cat"": ""Entry"", ""seconds"": 138, ""milliseconds"": 100, ""display"": NaN}]",96.345,131.21,34.675,131.21,133.9,1.987,,,,,,,,
6,124,138,15,MagEntry -> On1A1 -> MagEntry -> ITI2sec -> Off1A1 -> On1A2 -> ITI2sec -> Premature -> Premature -> TimeOut -> Off1A2 -> On1A3 -> Off1A3 -> TimeOut -> MagEntry,"[{""actual_row"": 124, ""state"": ""MagEntry"", ""cat"": ""Entry"", ""seconds"": 138, ""milliseconds"": 100, ""display"": NaN}, {""actual_row"": 125, ""state"": ""On1A1"", ""cat"": ""Input"", ""seconds"": 140, ""milliseconds"": 300, ""display"": NaN}, {""actual_row"": 126, ""state"": ""MagEntry"", ""cat"": ""Exit"", ""seconds"": 140, ""milliseconds"": 300, ""display"": ""1""}, {""actual_row"": 127, ""state"": ""ITI2sec"", ""cat"": ""Entry"", ""seconds"": 140, ""milliseconds"": 300, ""display"": NaN}, {""actual_row"": 128, ""state"": ""Off1A1"", ""cat"": ""Input"", ""seconds"": 140, ""milliseconds"": 965, ""display"": NaN}, {""actual_row"": 129, ""state"": ""On1A2"", ""cat"": ""Input"", ""seconds"": 141, ""milliseconds"": 930, ""display"": NaN}, {""actual_row"": 130, ""state"": ""ITI2sec"", ""cat"": ""Exit"", ""seconds"": 141, ""milliseconds"": 930, ""display"": ""2""}, {""actual_row"": 131, ""state"": ""Premature"", ""cat"": ""Entry"", ""seconds"": 141, ""milliseconds"": 930, ""display"": NaN}, {""actual_row"": 132, ""state"": ""Premature"", ""cat"": ""Exit"", ""seconds"": 141, ""milliseconds"": 935, ""display"": ""Time""}, {""actual_row"": 133, ""state"": ""TimeOut"", ""cat"": ""Entry"", ""seconds"": 141, ""milliseconds"": 935, ""display"": NaN}, {""actual_row"": 134, ""state"": ""Off1A2"", ""cat"": ""Input"", ""seconds"": 142, ""milliseconds"": 595, ""display"": NaN}, {""actual_row"": 135, ""state"": ""On1A3"", ""cat"": ""Input"", ""seconds"": 142, ""milliseconds"": 620, ""display"": NaN}, {""actual_row"": 136, ""state"": ""Off1A3"", ""cat"": ""Input"", ""seconds"": 142, ""milliseconds"": 960, ""display"": NaN}, {""actual_row"": 137, ""state"": ""TimeOut"", ""cat"": ""Exit"", ""seconds"": 146, ""milliseconds"": 940, ""display"": ""Time""}, {""actual_row"": 138, ""state"": ""MagEntry"", ""cat"": ""Entry"", ""seconds"": 146, ""milliseconds"": 940, ""display"": NaN}]",138.1,140.3,2.1,140.3,141.93,1.9,,,,,,,,
7,138,154,17,MagEntry -> On1A1 -> MagEntry -> ITI2sec -> Off1A1 -> ITI2sec -> RandomHole -> RandomHole -> hole2 -> hole2 -> Holdhole2 -> Holdhole2 -> Omission -> Omission -> TimeOut -> TimeOut -> MagEntry,"[{""actual_row"": 138, ""state"": ""MagEntry"", ""cat"": ""Entry"", ""seconds"": 146, ""milliseconds"": 940, ""display"": NaN}, {""actual_row"": 139, ""state"": ""On1A1"", ""cat"": ""Input"", ""seconds"": 148, ""milliseconds"": 445, ""display"": NaN}, {""actual_row"": 140, ""state"": ""MagEntry"", ""cat"": ""Exit"", ""seconds"": 148, ""milliseconds"": 445, ""display"": ""1""}, {""actual_row"": 141, ""state"": ""ITI2sec"", ""cat"": ""Entry"", ""seconds"": 148, ""milliseconds"": 445, ""display"": NaN}, {""actual_row"": 142, ""state"": ""Off1A1"", ""cat"": ""Input"", ""seconds"": 148, ""milliseconds"": 785, ""display"": NaN}, {""actual_row"": 143, ""state"": ""ITI2sec"", ""cat"": ""Exit"", ""seconds"": 150, ""milliseconds"": 450, ""display"": ""Time""}, {""actual_row"": 144, ""state"": ""RandomHole"", ""cat"": ""Entry"", ""seconds"": 150, ""milliseconds"": 450, ""display"": NaN}, {""actual_row"": 145, ""state"": ""RandomHole"", ""cat"": ""Exit"", ""seconds"": 150, ""milliseconds"": 460, ""display"": ""Time""}, {""actual_row"": 146, ""state"": ""hole2"", ""cat"": ""Entry"", ""seconds"": 150, ""milliseconds"": 460, ""display"": NaN}, {""actual_row"": 147, ""state"": ""hole2"", ""cat"": ""Exit"", ""seconds"": 151, ""milliseconds"": 965, ""display"": ""Time""}, {""actual_row"": 148, ""state"": ""Holdhole2"", ""cat"": ""Entry"", ""seconds"": 151, ""milliseconds"": 965, ""display"": NaN}, {""actual_row"": 149, ""state"": ""Holdhole2"", ""cat"": ""Exit"", ""seconds"": 153, ""milliseconds"": 470, ""display"": ""Time""}, {""actual_row"": 150, ""state"": ""Omission"", ""cat"": ""Entry"", ""seconds"": 153, ""milliseconds"": 470, ""display"": NaN}, {""actual_row"": 151, ""state"": ""Omission"", ""cat"": ""Exit"", ""seconds"": 153, ""milliseconds"": 480, ""display"": ""Time""}, {""actual_row"": 152, ""state"": ""TimeOut"", ""cat"": ""Entry"", ""seconds"": 153, ""milliseconds"": 480, ""display"": NaN}, {""actual_row"": 153, ""state"": ""TimeOut"", ""cat"": ""Exit"", ""seconds"": 158, ""milliseconds"": 485, ""display"": ""Time""}, {""actual_row"": 154, ""state"": ""MagEntry"", ""cat"": ""Entry"", ""seconds"": 158, ""milliseconds"": 485, ""display"": NaN}]",146.94,148.445,2.35,148.445,0.0,,,,Omission,150.46,,,,
8,154,176,23,MagEntry -> On1A4 -> Off1A4 -> On1A3 -> Off1A3 -> On1A1 -> MagEntry -> ITI2sec -> Off1A1 -> On1A2 -> On1A3 -> ITI2sec -> Premature -> Premature -> TimeOut -> Off1A2 -> Off1A3 -> On1A3 -> On1A4 -> Off1A3 -> Off1A4 -> TimeOut -> MagEntry,"[{""actual_row"": 154, ""state"": ""MagEntry"", ""cat"": ""Entry"", ""seconds"": 158, ""milliseconds"": 485, ""display"": NaN}, {""actual_row"": 155, ""state"": ""On1A4"", ""cat"": ""Input"", ""seconds"": 169, ""milliseconds"": 205, ""display"": NaN}, {""actual_row"": 156, ""state"": ""Off1A4"", ""cat"": ""Input"", ""seconds"": 169, ""milliseconds"": 870, ""display"": NaN}, {""actual_row"": 157, ""state"": ""On1A3"", ""cat"": ""Input"", ""seconds"": 175, ""milliseconds"": 500, ""display"": NaN}, {""actual_row"": 158, ""state"": ""Off1A3"", ""cat"": ""Input"", ""seconds"": 176, ""milliseconds"": 165, ""display"": NaN}, {""actual_row"": 159, ""state"": ""On1A1"", ""cat"": ""Input"", ""seconds"": 177, ""milliseconds"": 495, ""display"": NaN}, {""actual_row"": 160, ""state"": ""MagEntry"", ""cat"": ""Exit"", ""seconds"": 177, ""milliseconds"": 495, ""display"": ""1""}, {""actual_row"": 161, ""state"": ""ITI2sec"", ""cat"": ""Entry"", ""seconds"": 177, ""milliseconds"": 495, ""display"": NaN}, {""actual_row"": 162, ""state"": ""Off1A1"", ""cat"": ""Input"", ""seconds"": 178, ""milliseconds"": 160, ""display"": NaN}, {""actual_row"": 163, ""state"": ""On1A2"", ""cat"": ""Input"", ""seconds"": 179, ""milliseconds"": 385, ""display"": NaN}, {""actual_row"": 164, ""state"": ""On1A3"", ""cat"": ""Input"", ""seconds"": 179, ""milliseconds"": 385, ""display"": NaN}, {""actual_row"": 165, ""state"": ""ITI2sec"", ""cat"": ""Exit"", ""seconds"": 179, ""milliseconds"": 385, ""display"": ""2""}, {""actual_row"": 166, ""state"": ""Premature"", ""cat"": ""Entry"", ""seconds"": 179, ""milliseconds"": 385, ""display"": NaN}, {""actual_row"": 167, ""state"": ""Premature"", ""cat"": ""Exit"", ""seconds"": 179, ""milliseconds"": 390, ""display"": ""Time""}, {""actual_row"": 168, ""state"": ""TimeOut"", ""cat"": ""Entry"", ""seconds"": 179, ""milliseconds"": 390, ""display"": NaN}, {""actual_row"": 169, ""state"": ""Off1A2"", ""cat"": ""Input"", ""seconds"": 180, ""milliseconds"": 50, ""display"": NaN}, {""actual_row"": 170, ""state"": ""Off1A3"", ""cat"": ""Input"", ""seconds"": 180, ""milliseconds"": 50, ""display"": NaN}, {""actual_row"": 171, ""state"": ""On1A3"", ""cat"": ""Input"", ""seconds"": 180, ""milliseconds"": 226, ""display"": NaN}, {""actual_row"": 172, ""state"": ""On1A4"", ""cat"": ""Input"", ""seconds"": 180, ""milliseconds"": 226, ""display"": NaN}, {""actual_row"": 173, ""state"": ""Off1A3"", ""cat"": ""Input"", ""seconds"": 180, ""milliseconds"": 565, ""display"": NaN}, {""actual_row"": 174, ""state"": ""Off1A4"", ""cat"": ""Input"", ""seconds"": 180, ""milliseconds"": 565, ""display"": NaN}, {""actual_row"": 175, ""state"": ""TimeOut"", ""cat"": ""Exit"", ""seconds"": 184, ""milliseconds"": 395, ""display"": ""Time""}, {""actual_row"": 176, ""state"": ""MagEntry"", ""cat"": ""Entry"", ""seconds"": 184, ""milliseconds"": 395, ""display"": NaN}]",158.485,177.495,19.9,177.495,179.385,1.889,,,,,,,,
9,176,194,19,MagEntry -> On1A1 -> MagEntry -> ITI2sec -> Off1A1 -> On1A1 -> Off1A1 -> ITI2sec -> RandomHole -> RandomHole -> hole3 -> On1A2 -> hole3 -> IncorrectResp -> IncorrectResp -> TimeOut -> Off1A2 -> TimeOut -> MagEntry,"[{""actual_row"": 176, ""state"": ""MagEntry"", ""cat"": ""Entry"", ""seconds"": 184, ""milliseconds"": 395, ""display"": NaN}, {""actual_row"": 177, ""state"": ""On1A1"", ""cat"": ""Input"", ""seconds"": 187, ""milliseconds"": 620, ""display"": NaN}, {""actual_row"": 178, ""state"": ""MagEntry"", ""cat"": ""Exit"", ""seconds"": 187, ""milliseconds"": 620, ""display"": ""1""}, {""actual_row"": 179, ""state"": ""ITI2sec"", ""cat"": ""Entry"", ""seconds"": 187, ""milliseconds"": 620, ""display"": NaN}, {""actual_row"": 180, ""state"": ""Off1A1"", ""cat"": ""Input"", ""seconds"": 188, ""milliseconds"": 285, ""display"": NaN}, {""actual_row"": 181, ""state"": ""On1A1"", ""cat"": ""Input"", ""seconds"": 188, ""milliseconds"": 325, ""display"": NaN}, {""actual_row"": 182, ""state"": ""Off1A1"", ""cat"": ""Input"", ""seconds"": 188, ""milliseconds"": 665, ""display"": NaN}, {""actual_row"": 183, ""state"": ""ITI2sec"", ""cat"": ""Exit"", ""seconds"": 189, ""milliseconds"": 625, ""display"": ""Time""}, {""actual_row"": 184, ""state"": ""RandomHole"", ""cat"": ""Entry"", ""seconds"": 189, ""milliseconds"": 625, ""display"": NaN}, {""actual_row"": 185, ""state"": ""RandomHole"", ""cat"": ""Exit"", ""seconds"": 189, ""milliseconds"": 635, ""display"": ""Time""}, {""actual_row"": 186, ""state"": ""hole3"", ""cat"": ""Entry"", ""seconds"": 189, ""milliseconds"": 635, ""display"": NaN}, {""actual_row"": 187, ""state"": ""On1A2"", ""cat"": ""Input"", ""seconds"": 189, ""milliseconds"": 700, ""display"": NaN}, {""actual_row"": 188, ""state"": ""hole3"", ""cat"": ""Exit"", ""seconds"": 189, ""milliseconds"": 700, ""display"": ""2""}, {""actual_row"": 189, ""state"": ""IncorrectResp"", ""cat"": ""Entry"", ""seconds"": 189, ""milliseconds"": 700, ""display"": NaN}, {""actual_row"": 190, ""state"": ""IncorrectResp"", ""cat"": ""Exit"", ""seconds"": 189, ""milliseconds"": 710, ""display"": ""Time""}, {""actual_row"": 191, ""state"": ""TimeOut"", ""cat"": ""Entry"", ""seconds"": 189, ""milliseconds"": 710, ""display"": NaN}, {""actual_row"": 192, ""state"": ""Off1A2"", ""cat"": ""Input"", ""seconds"": 190, ""milliseconds"": 690, ""display"": NaN}, {""actual_row"": 193, ""state"": ""TimeOut"", ""cat"": ""Exit"", ""seconds"": 194, ""milliseconds"": 715, ""display"": ""Time""}, {""actual_row"": 194, ""state"": ""MagEntry"", ""cat"": ""Entry"", ""seconds"": 194, ""milliseconds"": 715, ""display"": NaN}]",184.395,187.62,2.667,187.62,0.0,,,IncorrectResp,,189.635,,,189.7,0.-627
10,194,220,27,MagEntry -> On1A4 -> On1A2 -> On1A3 -> Off1A4 -> Off1A2 -> Off1A3 -> On1A3 -> On1A4 -> Off1A3 -> Off1A4 -> On1A3 -> On1A4 -> Off1A3 -> Off1A4 -> On1A1 -> MagEntry -> ITI2sec -> Off1A1 -> On1A3 -> ITI2sec -> Premature -> Premature -> TimeOut -> Off1A3 -> TimeOut -> MagEntry,"[{""actual_row"": 194, ""state"": ""MagEntry"", ""cat"": ""Entry"", ""seconds"": 194, ""milliseconds"": 715, ""display"": NaN}, {""actual_row"": 195, ""state"": ""On1A4"", ""cat"": ""Input"", ""seconds"": 194, ""milliseconds"": 965, ""display"": NaN}, {""actual_row"": 196, ""state"": ""On1A2"", ""cat"": ""Input"", ""seconds"": 195, ""milliseconds"": 305, ""display"": NaN}, {""actual_row"": 197, ""state"": ""On1A3"", ""cat"": ""Input"", ""seconds"": 195, ""milliseconds"": 305, ""display"": NaN}, {""actual_row"": 198, ""state"": ""Off1A4"", ""cat"": ""Input"", ""seconds"": 195, ""milliseconds"": 305, ""display"": NaN}, {""actual_row"": 199, ""state"": ""Off1A2"", ""cat"": ""Input"", ""seconds"": 195, ""milliseconds"": 965, ""display"": NaN}, {""actual_row"": 200, ""state"": ""Off1A3"", ""cat"": ""Input"", ""seconds"": 195, ""milliseconds"": 965, ""display"": NaN}, {""actual_row"": 201, ""state"": ""On1A3"", ""cat"": ""Input"", ""seconds"": 196, ""milliseconds"": 30, ""display"": NaN}, {""actual_row"": 202, ""state"": ""On1A4"", ""cat"": ""Input"", ""seconds"": 196, ""milliseconds"": 30, ""display"": NaN}, {""actual_row"": 203, ""state"": ""Off1A3"", ""cat"": ""Input"", ""seconds"": 196, ""milliseconds"": 695, ""display"": NaN}, {""actual_row"": 204, ""state"": ""Off1A4"", ""cat"": ""Input"", ""seconds"": 196, ""milliseconds"": 695, ""display"": NaN}, {""actual_row"": 205, ""state"": ""On1A3"", ""cat"": ""Input"", ""seconds"": 196, ""milliseconds"": 770, ""display"": NaN}, {""actual_row"": 206, ""state"": ""On1A4"", ""cat"": ""Input"", ""seconds"": 196, ""milliseconds"": 770, ""display"": NaN}, {""actual_row"": 207, ""state"": ""Off1A3"", ""cat"": ""Input"", ""seconds"": 197, ""milliseconds"": 435, ""display"": NaN}, {""actual_row"": 208, ""state"": ""Off1A4"", ""cat"": ""Input"", ""seconds"": 197, ""milliseconds"": 435, ""display"": NaN}, {""actual_row"": 209, ""state"": ""On1A1"", ""cat"": ""Input"", ""seconds"": 198, ""milliseconds"": 595, ""display"": NaN}, {""actual_row"": 210, ""state"": ""MagEntry"", ""cat"": ""Exit"", ""seconds"": 198, ""milliseconds"": 595, ""display"": ""1""}, {""actual_row"": 211, ""state"": ""ITI2sec"", ""cat"": ""Entry"", ""seconds"": 198, ""milliseconds"": 595, ""display"": NaN}, {""actual_row"": 212, ""state"": ""Off1A1"", ""cat"": ""Input"", ""seconds"": 199, ""milliseconds"": 585, ""display"": NaN}, {""actual_row"": 213, ""state"": ""On1A3"", ""cat"": ""Input"", ""seconds"": 200, ""milliseconds"": 530, ""display"": NaN}, {""actual_row"": 214, ""state"": ""ITI2sec"", ""cat"": ""Exit"", ""seconds"": 200, ""milliseconds"": 530, ""display"": ""3""}, {""actual_row"": 215, ""state"": ""Premature"", ""cat"": ""Entry"", ""seconds"": 200, ""milliseconds"": 530, ""display"": NaN}, {""actual_row"": 216, ""state"": ""Premature"", ""cat"": ""Exit"", ""seconds"": 200, ""milliseconds"": 535, ""display"": ""Time""}, {""actual_row"": 217, ""state"": ""TimeOut"", ""cat"": ""Entry"", ""seconds"": 200, ""milliseconds"": 535, ""display"": NaN}, {""actual_row"": 218, ""state"": ""Off1A3"", ""cat"": ""Input"", ""seconds"": 201, ""milliseconds"": 520, ""display"": NaN}, {""actual_row"": 219, ""state"": ""TimeOut"", ""cat"": ""Exit"", ""seconds"": 205, ""milliseconds"": 540, ""display"": ""Time""}, {""actual_row"": 220, ""state"": ""MagEntry"", ""cat"": ""Entry"", ""seconds"": 205, ""milliseconds"": 540, ""display"": NaN}]",194.715,198.595,3.879,198.595,200.53,1.457,,,,,,,,
11,220,234,15,MagEntry -> On1A1 -> MagEntry -> ITI2sec -> Off1A1 -> ITI2sec -> RandomHole -> RandomHole -> hole5 -> On1A3 -> On1A4 -> hole5 -> CorrectResp -> CorrectResp -> MagEntry,"[{""actual_row"": 220, ""state"": ""MagEntry"", ""cat"": ""Entry"", ""seconds"": 205, ""milliseconds"": 540, ""display"": NaN}, {""actual_row"": 221, ""state"": ""On1A1"", ""cat"": ""Input"", ""seconds"": 222, ""milliseconds"": 30, ""display"": NaN}, {""actual_row"": 222, ""state"": ""MagEntry"", ""cat"": ""Exit"", ""seconds"": 222, ""milliseconds"": 30, ""display"": ""1""}, {""actual_row"": 223, ""state"": ""ITI2sec"", ""cat"": ""Entry"", ""seconds"": 222, ""milliseconds"": 30, ""display"": NaN}, {""actual_row"": 224, ""state"": ""Off1A1"", ""cat"": ""Input"", ""seconds"": 222, ""milliseconds"": 370, ""display"": NaN}, {""actual_row"": 225, ""state"": ""ITI2sec"", ""cat"": ""Exit"", ""seconds"": 224, ""milliseconds"": 35, ""display"": ""Time""}, {""actual_row"": 226, ""state"": ""RandomHole"", ""cat"": ""Entry"", ""seconds"": 224, ""milliseconds"": 35, ""display"": NaN}, {""actual_row"": 227, ""state"": ""RandomHole"", ""cat"": ""Exit"", ""seconds"": 224, ""milliseconds"": 45, ""display"": ""Time""}, {""actual_row"": 228, ""state"": ""hole5"", ""cat"": ""Entry"", ""seconds"": 224, ""milliseconds"": 45, ""display"": NaN}, {""actual_row"": 229, ""state"": ""On1A3"", ""cat"": ""Input"", ""seconds"": 224, ""milliseconds"": 510, ""display"": NaN}, {""actual_row"": 230, ""state"": ""On1A4"", ""cat"": ""Input"", ""seconds"": 224, ""milliseconds"": 510, ""display"": NaN}, {""actual_row"": 231, ""state"": ""hole5"", ""cat"": ""Exit"", ""seconds"": 224, ""milliseconds"": 510, ""display"": ""4""}, {""actual_row"": 232, ""state"": ""CorrectResp"", ""cat"": ""Entry"", ""seconds"": 224, ""milliseconds"": 510, ""display"": NaN}, {""actual_row"": 233, ""state"": ""CorrectResp"", ""cat"": ""Exit"", ""seconds"": 224, ""milliseconds"": 515, ""display"": ""Time""}, {""actual_row"": 234, ""state"": ""MagEntry"", ""cat"": ""Entry"", ""seconds"": 224, ""milliseconds"": 515, ""display"": NaN}]",205.54,222.3,16.948,222.3,0.0,,CorrectResp,,,224.45,224.51,0.6,,
12,234,252,19,MagEntry -> Off1A3 -> Off1A4 -> On1A1 -> MagEntry -> ITI2sec -> Off1A1 -> ITI2sec -> RandomHole -> RandomHole -> hole1 -> On1A3 -> hole1 -> IncorrectResp -> IncorrectResp -> TimeOut -> Off1A3 -> TimeOut -> MagEntry,"[{""actual_row"": 234, ""state"": ""MagEntry"", ""cat"": ""Entry"", ""seconds"": 224, ""milliseconds"": 515, ""display"": NaN}, {""actual_row"": 235, ""state"": ""Off1A3"", ""cat"": ""Input"", ""seconds"": 224, ""milliseconds"": 850, ""display"": NaN}, {""actual_row"": 236, ""state"": ""Off1A4"", ""cat"": ""Input"", ""seconds"": 224, ""milliseconds"": 850, ""display"": NaN}, {""actual_row"": 237, ""state"": ""On1A1"", ""cat"": ""Input"", ""seconds"": 225, ""milliseconds"": 485, ""display"": NaN}, {""actual_row"": 238, ""state"": ""MagEntry"", ""cat"": ""Exit"", ""seconds"": 225, ""milliseconds"": 485, ""display"": ""1""}, {""actual_row"": 239, ""state"": ""ITI2sec"", ""cat"": ""Entry"", ""seconds"": 225, ""milliseconds"": 485, ""display"": NaN}, {""actual_row"": 240, ""state"": ""Off1A1"", ""cat"": ""Input"", ""seconds"": 226, ""milliseconds"": 800, ""display"": NaN}, {""actual_row"": 241, ""state"": ""ITI2sec"", ""cat"": ""Exit"", ""seconds"": 227, ""milliseconds"": 490, ""display"": ""Time""}, {""actual_row"": 242, ""state"": ""RandomHole"", ""cat"": ""Entry"", ""seconds"": 227, ""milliseconds"": 490, ""display"": NaN}, {""actual_row"": 243, ""state"": ""RandomHole"", ""cat"": ""Exit"", ""seconds"": 227, ""milliseconds"": 500, ""display"": ""Time""}, {""actual_row"": 244, ""state"": ""hole1"", ""cat"": ""Entry"", ""seconds"": 227, ""milliseconds"": 500, ""display"": NaN}, {""actual_row"": 245, ""state"": ""On1A3"", ""cat"": ""Input"", ""seconds"": 227, ""milliseconds"": 555, ""display"": NaN}, {""actual_row"": 246, ""state"": ""hole1"", ""cat"": ""Exit"", ""seconds"": 227, ""milliseconds"": 555, ""display"": ""3""}, {""actual_row"": 247, ""state"": ""IncorrectResp"", ""cat"": ""Entry"", ""seconds"": 227, ""milliseconds"": 555, ""display"": NaN}, {""actual_row"": 248, ""state"": ""IncorrectResp"", ""cat"": ""Exit"", ""seconds"": 227, ""milliseconds"": 565, ""display"": ""Time""}, {""actual_row"": 249, ""state"": ""TimeOut"", ""cat"": ""Entry"", ""seconds"": 227, ""milliseconds"": 565, ""display"": NaN}, {""actual_row"": 250, ""state"": ""Off1A3"", ""cat"": ""Input"", ""seconds"": 227, ""milliseconds"": 895, ""display"": NaN}, {""actual_row"": 251, ""state"": ""TimeOut"", ""cat"": ""Exit"", ""seconds"": 232, ""milliseconds"": 570, ""display"": ""Time""}, {""actual_row"": 252, ""state"": ""MagEntry"", ""cat"": ""Entry"", ""seconds"": 232, ""milliseconds"": 570, ""display"": NaN}]",224.515,225.485,0.97,225.485,0.0,,,IncorrectResp,,227.5,,,227.555,0.550
13,252,288,37,MagEntry -> On1A4 -> Off1A4 -> On1A2 -> On1A3 -> Off1A2 -> Off1A3 -> On1A3 -> On1A4 -> Off1A3 -> Off1A4 -> On1A3 -> Off1A3 -> On1A4 -> Off1A4 -> On1A2 -> On1A3 -> Off1A2 -> Off1A3 -> On1A3 -> On1A4 -> Off1A3 -> Off1A4 -> On1A1 -> MagEntry -> ITI2sec -> Off1A1 -> ITI2sec -> RandomHole -> RandomHole -> hole5 -> On1A3 -> On1A4 -> hole5 -> CorrectResp -> CorrectResp -> MagEntry,"[{""actual_row"": 252, ""state"": ""MagEntry"", ""cat"": ""Entry"", ""seconds"": 232, ""milliseconds"": 570, ""display"": NaN}, {""actual_row"": 253, ""state"": ""On1A4"", ""cat"": ""Input"", ""seconds"": 234, ""milliseconds"": 575, ""display"": NaN}, {""actual_row"": 254, ""state"": ""Off1A4"", ""cat"": ""Input"", ""seconds"": 234, ""milliseconds"": 915, ""display"": NaN}, {""actual_row"": 255, ""state"": ""On1A2"", ""cat"": ""Input"", ""seconds"": 234, ""milliseconds"": 950, ""display"": NaN}, {""actual_row"": 256, ""state"": ""On1A3"", ""cat"": ""Input"", ""seconds"": 234, ""milliseconds"": 950, ""display"": NaN}, {""actual_row"": 257, ""state"": ""Off1A2"", ""cat"": ""Input"", ""seconds"": 235, ""milliseconds"": 290, ""display"": NaN}, {""actual_row"": 258, ""state"": ""Off1A3"", ""cat"": ""Input"", ""seconds"": 235, ""milliseconds"": 290, ""display"": NaN}, {""actual_row"": 259, ""state"": ""On1A3"", ""cat"": ""Input"", ""seconds"": 235, ""milliseconds"": 420, ""display"": NaN}, {""actual_row"": 260, ""state"": ""On1A4"", ""cat"": ""Input"", ""seconds"": 235, ""milliseconds"": 420, ""display"": NaN}, {""actual_row"": 261, ""state"": ""Off1A3"", ""cat"": ""Input"", ""seconds"": 235, ""milliseconds"": 760, ""display"": NaN}, {""actual_row"": 262, ""state"": ""Off1A4"", ""cat"": ""Input"", ""seconds"": 235, ""milliseconds"": 760, ""display"": NaN}, {""actual_row"": 263, ""state"": ""On1A3"", ""cat"": ""Input"", ""seconds"": 264, ""milliseconds"": 260, ""display"": NaN}, {""actual_row"": 264, ""state"": ""Off1A3"", ""cat"": ""Input"", ""seconds"": 264, ""milliseconds"": 600, ""display"": NaN}, {""actual_row"": 265, ""state"": ""On1A4"", ""cat"": ""Input"", ""seconds"": 302, ""milliseconds"": 790, ""display"": NaN}, {""actual_row"": 266, ""state"": ""Off1A4"", ""cat"": ""Input"", ""seconds"": 303, ""milliseconds"": 130, ""display"": NaN}, {""actual_row"": 267, ""state"": ""On1A2"", ""cat"": ""Input"", ""seconds"": 323, ""milliseconds"": 990, ""display"": NaN}, {""actual_row"": 268, ""state"": ""On1A3"", ""cat"": ""Input"", ""seconds"": 323, ""milliseconds"": 990, ""display"": NaN}, {""actual_row"": 269, ""state"": ""Off1A2"", ""cat"": ""Input"", ""seconds"": 324, ""milliseconds"": 655, ""display"": NaN}, {""actual_row"": 270, ""state"": ""Off1A3"", ""cat"": ""Input"", ""seconds"": 324, ""milliseconds"": 655, ""display"": NaN}, {""actual_row"": 271, ""state"": ""On1A3"", ""cat"": ""Input"", ""seconds"": 324, ""milliseconds"": 780, ""display"": NaN}, {""actual_row"": 272, ""state"": ""On1A4"", ""cat"": ""Input"", ""seconds"": 324, ""milliseconds"": 780, ""display"": NaN}, {""actual_row"": 273, ""state"": ""Off1A3"", ""cat"": ""Input"", ""seconds"": 325, ""milliseconds"": 120, ""display"": NaN}, {""actual_row"": 274, ""state"": ""Off1A4"", ""cat"": ""Input"", ""seconds"": 325, ""milliseconds"": 120, ""display"": NaN}, {""actual_row"": 275, ""state"": ""On1A1"", ""cat"": ""Input"", ""seconds"": 330, ""milliseconds"": 175, ""display"": NaN}, {""actual_row"": 276, ""state"": ""MagEntry"", ""cat"": ""Exit"", ""seconds"": 330, ""milliseconds"": 175, ""display"": ""1""}, {""actual_row"": 277, ""state"": ""ITI2sec"", ""cat"": ""Entry"", ""seconds"": 330, ""milliseconds"": 175, ""display"": NaN}, {""actual_row"": 278, ""state"": ""Off1A1"", ""cat"": ""Input"", ""seconds"": 330, ""milliseconds"": 840, ""display"": NaN}, {""actual_row"": 279, ""state"": ""ITI2sec"", ""cat"": ""Exit"", ""seconds"": 332, ""milliseconds"": 180, ""display"": ""Time""}, {""actual_row"": 280, ""state"": ""RandomHole"", ""cat"": ""Entry"", ""seconds"": 332, ""milliseconds"": 180, ""display"": NaN}, {""actual_row"": 281, ""state"": ""RandomHole"", ""cat"": ""Exit"", ""seconds"": 332, ""milliseconds"": 190, ""display"": ""Time""}, {""actual_row"": 282, ""state"": ""hole5"", ""cat"": ""Entry"", ""seconds"": 332, ""milliseconds"": 190, ""display"": NaN}, {""actual_row"": 283, ""state"": ""On1A3"", ""cat"": ""Input"", ""seconds"": 333, ""milliseconds"": 540, ""display"": NaN}, {""actual_row"": 284, ""state"": ""On1A4"", ""cat"": ""Input"", ""seconds"": 333, ""milliseconds"": 540, ""display"": NaN}, {""actual_row"": 285, ""state"": ""hole5"", ""cat"": ""Exit"", ""seconds"": 333, ""milliseconds"": 540, ""display"": ""4""}, {""actual_row"": 286, ""state"": ""CorrectResp"", ""cat"": ""Entry"", ""seconds"": 333, ""milliseconds"": 540, ""display"": NaN}, {""actual_row"": 287, ""state"": ""CorrectResp"", ""cat"": ""Exit"", ""seconds"": 333, ""milliseconds"": 545, ""display"": ""Time""}, {""actual_row"": 288, ""state"": ""MagEntry"", ""cat"": ""Entry"", ""seconds"": 333, ""milliseconds"": 545, ""display"": NaN}]",232.57,330.175,98.118,330.175,0.0,,CorrectResp,,,332.19,333.54,1.34,,
14,288,303,16,MagEntry -> Off1A3 -> Off1A4 -> On1A1 -> MagEntry -> ITI2sec -> Off1A1 -> ITI2sec -> RandomHole -> RandomHole -> hole2 -> On1A3 -> hole2 -> CorrectResp -> CorrectResp -> MagEntry,"[{""actual_row"": 288, ""state"": ""MagEntry"", ""cat"": ""Entry"", ""seconds"": 333, ""milliseconds"": 545, ""display"": NaN}, {""actual_row"": 289, ""state"": ""Off1A3"", ""cat"": ""Input"", ""seconds"": 333, ""milliseconds"": 880, ""display"": NaN}, {""actual_row"": 290, ""state"": ""Off1A4"", ""cat"": ""Input"", ""seconds"": 333, ""milliseconds"": 880, ""display"": NaN}, {""actual_row"": 291, ""state"": ""On1A1"", ""cat"": ""Input"", ""seconds"": 334, ""milliseconds"": 450, ""display"": NaN}, {""actual_row"": 292, ""state"": ""MagEntry"", ""cat"": ""Exit"", ""seconds"": 334, ""milliseconds"": 450, ""display"": ""1""}, {""actual_row"": 293, ""state"": ""ITI2sec"", ""cat"": ""Entry"", ""seconds"": 334, ""milliseconds"": 450, ""display"": NaN}, {""actual_row"": 294, ""state"": ""Off1A1"", ""cat"": ""Input"", ""seconds"": 335, ""milliseconds"": 440, ""display"": NaN}, {""actual_row"": 295, ""state"": ""ITI2sec"", ""cat"": ""Exit"", ""seconds"": 336, ""milliseconds"": 455, ""display"": ""Time""}, {""actual_row"": 296, ""state"": ""RandomHole"", ""cat"": ""Entry"", ""seconds"": 336, ""milliseconds"": 455, ""display"": NaN}, {""actual_row"": 297, ""state"": ""RandomHole"", ""cat"": ""Exit"", ""seconds"": 336, ""milliseconds"": 465, ""display"": ""Time""}, {""actual_row"": 298, ""state"": ""hole2"", ""cat"": ""Entry"", ""seconds"": 336, ""milliseconds"": 465, ""display"": NaN}, {""actual_row"": 299, ""state"": ""On1A3"", ""cat"": ""Input"", ""seconds"": 336, ""milliseconds"": 855, ""display"": NaN}, {""actual_row"": 300, ""state"": ""hole2"", ""cat"": ""Exit"", ""seconds"": 336, ""milliseconds"": 855, ""display"": ""3""}, {""actual_row"": 301, ""state"": ""CorrectResp"", ""cat"": ""Entry"", ""seconds"": 336, ""milliseconds"": 855, ""display"": NaN}, {""actual_row"": 302, ""state"": ""CorrectResp"", ""cat"": ""Exit"", ""seconds"": 336, ""milliseconds"": 860, ""display"": ""Time""}, {""actual_row"": 303, ""state"": ""MagEntry"", ""cat"": ""Entry"", ""seconds"": 336, ""milliseconds"": 860, ""display"": NaN}]",333.545,334.45,0.5,334.45,0.0,,CorrectResp,,,336.465,336.855,0.390,,
15,303,321,19,MagEntry -> Off1A3 -> On1A1 -> MagEntry -> ITI2sec -> Off1A1 -> ITI2sec -> RandomHole -> RandomHole -> hole1 -> On1A2 -> hole1 -> CorrectResp -> CorrectResp -> State_change -> State_change -> Level8 -> Level8 -> MagEntry,"[{""actual_row"": 303, ""state"": ""MagEntry"", ""cat"": ""Entry"", ""seconds"": 336, ""milliseconds"": 860, ""display"": NaN}, {""actual_row"": 304, ""state"": ""Off1A3"", ""cat"": ""Input"", ""seconds"": 337, ""milliseconds"": 850, ""display"": NaN}, {""actual_row"": 305, ""state"": ""On1A1"", ""cat"": ""Input"", ""seconds"": 338, ""milliseconds"": 515, ""display"": NaN}, {""actual_row"": 306, ""state"": ""MagEntry"", ""cat"": ""Exit"", ""seconds"": 338, ""milliseconds"": 515, ""display"": ""1""}, {""actual_row"": 307, ""state"": ""ITI2sec"", ""cat"": ""Entry"", ""seconds"": 338, ""milliseconds"": 515, ""display"": NaN}, {""actual_row"": 308, ""state"": ""Off1A1"", ""cat"": ""Input"", ""seconds"": 339, ""milliseconds"": 505, ""display"": NaN}, {""actual_row"": 309, ""state"": ""ITI2sec"", ""cat"": ""Exit"", ""seconds"": 340, ""milliseconds"": 520, ""display"": ""Time""}, {""actual_row"": 310, ""state"": ""RandomHole"", ""cat"": ""Entry"", ""seconds"": 340, ""milliseconds"": 520, ""display"": NaN}, {""actual_row"": 311, ""state"": ""RandomHole"", ""cat"": ""Exit"", ""seconds"": 340, ""milliseconds"": 530, ""display"": ""Time""}, {""actual_row"": 312, ""state"": ""hole1"", ""cat"": ""Entry"", ""seconds"": 340, ""milliseconds"": 530, ""display"": NaN}, {""actual_row"": 313, ""state"": ""On1A2"", ""cat"": ""Input"", ""seconds"": 341, ""milliseconds"": 765, ""display"": NaN}, {""actual_row"": 314, ""state"": ""hole1"", ""cat"": ""Exit"", ""seconds"": 341, ""milliseconds"": 765, ""display"": ""2""}, {""actual_row"": 315, ""state"": ""CorrectResp"", ""cat"": ""Entry"", ""seconds"": 341, ""milliseconds"": 765, ""display"": NaN}, {""actual_row"": 316, ""state"": ""CorrectResp"", ""cat"": ""Exit"", ""seconds"": 341, ""milliseconds"": 770, ""display"": NaN}, {""actual_row"": 317, ""state"": ""State_change"", ""cat"": ""Entry"", ""seconds"": 341, ""milliseconds"": 770, ""display"": NaN}, {""actual_row"": 318, ""state"": ""State_change"", ""cat"": ""Exit"", ""seconds"": 341, ""milliseconds"": 775, ""display"": NaN}, {""actual_row"": 319, ""state"": ""Level8"", ""cat"": ""Entry"", ""seconds"": 341, ""milliseconds"": 775, ""display"": NaN}, {""actual_row"": 320, ""state"": ""Level8"", ""cat"": ""Exit"", ""seconds"": 341, ""milliseconds"": 780, ""display"": ""Time""}, {""actual_row"": 321, ""state"": ""MagEntry"", ""cat"": ""Entry"", ""seconds"": 341, ""milliseconds"": 780, ""display"": NaN}]",336.86,338.515,2.428,338.515,0.0,,CorrectResp,,,340.53,341.765,1.711,,
16,321,342,22,MagEntry -> Off1A2 -> On1A1 -> MagEntry -> ITI2sec -> Off1A1 -> On1A2 -> ITI2sec -> Premature -> Premature -> TimeOut -> Off1A2 -> On1A4 -> On1A2 -> On1A3 -> Off1A4 -> Off1A2 -> Off1A3 -> On1A3 -> On1A4 -> TimeOut -> MagEntry,"[{""actual_row"": 321, ""state"": ""MagEntry"", ""cat"": ""Entry"", ""seconds"": 341, ""milliseconds"": 780, ""display"": NaN}, {""actual_row"": 322, ""state"": ""Off1A2"", ""cat"": ""Input"", ""seconds"": 342, ""milliseconds"": 430, ""display"": NaN}, {""actual_row"": 323, ""state"": ""On1A1"", ""cat"": ""Input"", ""seconds"": 342, ""milliseconds"": 970, ""display"": NaN}, {""actual_row"": 324, ""state"": ""MagEntry"", ""cat"": ""Exit"", ""seconds"": 342, ""milliseconds"": 970, ""display"": ""1""}, {""actual_row"": 325, ""state"": ""ITI2sec"", ""cat"": ""Entry"", ""seconds"": 342, ""milliseconds"": 970, ""display"": NaN}, {""actual_row"": 326, ""state"": ""Off1A1"", ""cat"": ""Input"", ""seconds"": 343, ""milliseconds"": 960, ""display"": NaN}, {""actual_row"": 327, ""state"": ""On1A2"", ""cat"": ""Input"", ""seconds"": 344, ""milliseconds"": 730, ""display"": NaN}, {""actual_row"": 328, ""state"": ""ITI2sec"", ""cat"": ""Exit"", ""seconds"": 344, ""milliseconds"": 730, ""display"": ""2""}, {""actual_row"": 329, ""state"": ""Premature"", ""cat"": ""Entry"", ""seconds"": 344, ""milliseconds"": 730, ""display"": NaN}, {""actual_row"": 330, ""state"": ""Premature"", ""cat"": ""Exit"", ""seconds"": 344, ""milliseconds"": 735, ""display"": ""Time""}, {""actual_row"": 331, ""state"": ""TimeOut"", ""cat"": ""Entry"", ""seconds"": 344, ""milliseconds"": 735, ""display"": NaN}, {""actual_row"": 332, ""state"": ""Off1A2"", ""cat"": ""Input"", ""seconds"": 345, ""milliseconds"": 70, ""display"": NaN}, {""actual_row"": 333, ""state"": ""On1A4"", ""cat"": ""Input"", ""seconds"": 348, ""milliseconds"": 356, ""display"": NaN}, {""actual_row"": 334, ""state"": ""On1A2"", ""cat"": ""Input"", ""seconds"": 349, ""milliseconds"": 15, ""display"": NaN}, {""actual_row"": 335, ""state"": ""On1A3"", ""cat"": ""Input"", ""seconds"": 349, ""milliseconds"": 15, ""display"": NaN}, {""actual_row"": 336, ""state"": ""Off1A4"", ""cat"": ""Input"", ""seconds"": 349, ""milliseconds"": 20, ""display"": NaN}, {""actual_row"": 337, ""state"": ""Off1A2"", ""cat"": ""Input"", ""seconds"": 349, ""milliseconds"": 345, ""display"": NaN}, {""actual_row"": 338, ""state"": ""Off1A3"", ""cat"": ""Input"", ""seconds"": 349, ""milliseconds"": 345, ""display"": NaN}, {""actual_row"": 339, ""state"": ""On1A3"", ""cat"": ""Input"", ""seconds"": 349, ""milliseconds"": 505, ""display"": NaN}, {""actual_row"": 340, ""state"": ""On1A4"", ""cat"": ""Input"", ""seconds"": 349, ""milliseconds"": 505, ""display"": NaN}, {""actual_row"": 341, ""state"": ""TimeOut"", ""cat"": ""Exit"", ""seconds"": 349, ""milliseconds"": 740, ""display"": ""Time""}, {""actual_row"": 342, ""state"": ""MagEntry"", ""cat"": ""Entry"", ""seconds"": 349, ""milliseconds"": 740, ""display"": NaN}]",341.78,342.97,1.19,342.97,344.73,1.975,,,,,,,,
17,342,360,19,MagEntry -> Off1A3 -> Off1A4 -> On1A1 -> MagEntry -> ITI2sec -> Off1A1 -> ITI2sec -> RandomHole -> RandomHole -> hole4 -> On1A4 -> hole4 -> IncorrectResp -> IncorrectResp -> TimeOut -> Off1A4 -> TimeOut -> MagEntry,"[{""actual_row"": 342, ""state"": ""MagEntry"", ""cat"": ""Entry"", ""seconds"": 349, ""milliseconds"": 740, ""display"": NaN}, {""actual_row"": 343, ""state"": ""Off1A3"", ""cat"": ""Input"", ""seconds"": 349, ""milliseconds"": 845, ""display"": NaN}, {""actual_row"": 344, ""state"": ""Off1A4"", ""cat"": ""Input"", ""seconds"": 349, ""milliseconds"": 845, ""display"": NaN}, {""actual_row"": 345, ""state"": ""On1A1"", ""cat"": ""Input"", ""seconds"": 352, ""milliseconds"": 680, ""display"": NaN}, {""actual_row"": 346, ""state"": ""MagEntry"", ""cat"": ""Exit"", ""seconds"": 352, ""milliseconds"": 680, ""display"": ""1""}, {""actual_row"": 347, ""state"": ""ITI2sec"", ""cat"": ""Entry"", ""seconds"": 352, ""milliseconds"": 680, ""display"": NaN}, {""actual_row"": 348, ""state"": ""Off1A1"", ""cat"": ""Input"", ""seconds"": 353, ""milliseconds"": 345, ""display"": NaN}, {""actual_row"": 349, ""state"": ""ITI2sec"", ""cat"": ""Exit"", ""seconds"": 354, ""milliseconds"": 685, ""display"": ""Time""}, {""actual_row"": 350, ""state"": ""RandomHole"", ""cat"": ""Entry"", ""seconds"": 354, ""milliseconds"": 685, ""display"": NaN}, {""actual_row"": 351, ""state"": ""RandomHole"", ""cat"": ""Exit"", ""seconds"": 354, ""milliseconds"": 695, ""display"": ""Time""}, {""actual_row"": 352, ""state"": ""hole4"", ""cat"": ""Entry"", ""seconds"": 354, ""milliseconds"": 695, ""display"": NaN}, {""actual_row"": 353, ""state"": ""On1A4"", ""cat"": ""Input"", ""seconds"": 355, ""milliseconds"": 170, ""display"": NaN}, {""actual_row"": 354, ""state"": ""hole4"", ""cat"": ""Exit"", ""seconds"": 355, ""milliseconds"": 170, ""display"": ""4""}, {""actual_row"": 355, ""state"": ""IncorrectResp"", ""cat"": ""Entry"", ""seconds"": 355, ""milliseconds"": 170, ""display"": NaN}, {""actual_row"": 356, ""state"": ""IncorrectResp"", ""cat"": ""Exit"", ""seconds"": 355, ""milliseconds"": 180, ""display"": ""Time""}, {""actual_row"": 357, ""state"": ""TimeOut"", ""cat"": ""Entry"", ""seconds"": 355, ""milliseconds"": 180, ""display"": NaN}, {""actual_row"": 358, ""state"": ""Off1A4"", ""cat"": ""Input"", ""seconds"": 356, ""milliseconds"": 160, ""display"": NaN}, {""actual_row"": 359, ""state"": ""TimeOut"", ""cat"": ""Exit"", ""seconds"": 360, ""milliseconds"": 185, ""display"": ""Time""}, {""actual_row"": 360, ""state"": ""MagEntry"", ""cat"": ""Entry"", ""seconds"": 360, ""milliseconds"": 185, ""display"": NaN}]",349.74,352.68,2.993,352.68,0.0,,,IncorrectResp,,354.695,,,355.17,0.322
18,360,386,27,MagEntry -> On1A1 -> MagEntry -> ITI2sec -> Off1A1 -> ITI2sec -> RandomHole -> RandomHole -> hole4 -> hole4 -> Holdhole4 -> Holdhole4 -> Omission -> Omission -> TimeOut -> On1A3 -> Off1A3 -> On1A4 -> Off1A4 -> On1A2 -> On1A3 -> On1A4 -> Off1A2 -> Off1A3 -> Off1A4 -> TimeOut -> MagEntry,"[{""actual_row"": 360, ""state"": ""MagEntry"", ""cat"": ""Entry"", ""seconds"": 360, ""milliseconds"": 185, ""display"": NaN}, {""actual_row"": 361, ""state"": ""On1A1"", ""cat"": ""Input"", ""seconds"": 361, ""milliseconds"": 410, ""display"": NaN}, {""actual_row"": 362, ""state"": ""MagEntry"", ""cat"": ""Exit"", ""seconds"": 361, ""milliseconds"": 410, ""display"": ""1""}, {""actual_row"": 363, ""state"": ""ITI2sec"", ""cat"": ""Entry"", ""seconds"": 361, ""milliseconds"": 410, ""display"": NaN}, {""actual_row"": 364, ""state"": ""Off1A1"", ""cat"": ""Input"", ""seconds"": 361, ""milliseconds"": 750, ""display"": NaN}, {""actual_row"": 365, ""state"": ""ITI2sec"", ""cat"": ""Exit"", ""seconds"": 363, ""milliseconds"": 415, ""display"": ""Time""}, {""actual_row"": 366, ""state"": ""RandomHole"", ""cat"": ""Entry"", ""seconds"": 363, ""milliseconds"": 415, ""display"": NaN}, {""actual_row"": 367, ""state"": ""RandomHole"", ""cat"": ""Exit"", ""seconds"": 363, ""milliseconds"": 425, ""display"": ""Time""}, {""actual_row"": 368, ""state"": ""hole4"", ""cat"": ""Entry"", ""seconds"": 363, ""milliseconds"": 425, ""display"": NaN}, {""actual_row"": 369, ""state"": ""hole4"", ""cat"": ""Exit"", ""seconds"": 364, ""milliseconds"": 425, ""display"": ""Time""}, {""actual_row"": 370, ""state"": ""Holdhole4"", ""cat"": ""Entry"", ""seconds"": 364, ""milliseconds"": 425, ""display"": NaN}, {""actual_row"": 371, ""state"": ""Holdhole4"", ""cat"": ""Exit"", ""seconds"": 365, ""milliseconds"": 425, ""display"": ""Time""}, {""actual_row"": 372, ""state"": ""Omission"", ""cat"": ""Entry"", ""seconds"": 365, ""milliseconds"": 425, ""display"": NaN}, {""actual_row"": 373, ""state"": ""Omission"", ""cat"": ""Exit"", ""seconds"": 365, ""milliseconds"": 435, ""display"": ""Time""}, {""actual_row"": 374, ""state"": ""TimeOut"", ""cat"": ""Entry"", ""seconds"": 365, ""milliseconds"": 435, ""display"": NaN}, {""actual_row"": 375, ""state"": ""On1A3"", ""cat"": ""Input"", ""seconds"": 367, ""milliseconds"": 325, ""display"": NaN}, {""actual_row"": 376, ""state"": ""Off1A3"", ""cat"": ""Input"", ""seconds"": 367, ""milliseconds"": 665, ""display"": NaN}, {""actual_row"": 377, ""state"": ""On1A4"", ""cat"": ""Input"", ""seconds"": 367, ""milliseconds"": 845, ""display"": NaN}, {""actual_row"": 378, ""state"": ""Off1A4"", ""cat"": ""Input"", ""seconds"": 368, ""milliseconds"": 185, ""display"": NaN}, {""actual_row"": 379, ""state"": ""On1A2"", ""cat"": ""Input"", ""seconds"": 368, ""milliseconds"": 290, ""display"": NaN}, {""actual_row"": 380, ""state"": ""On1A3"", ""cat"": ""Input"", ""seconds"": 368, ""milliseconds"": 290, ""display"": NaN}, {""actual_row"": 381, ""state"": ""On1A4"", ""cat"": ""Input"", ""seconds"": 368, ""milliseconds"": 620, ""display"": NaN}, {""actual_row"": 382, ""state"": ""Off1A2"", ""cat"": ""Input"", ""seconds"": 368, ""milliseconds"": 630, ""display"": NaN}, {""actual_row"": 383, ""state"": ""Off1A3"", ""cat"": ""Input"", ""seconds"": 368, ""milliseconds"": 955, ""display"": NaN}, {""actual_row"": 384, ""state"": ""Off1A4"", ""cat"": ""Input"", ""seconds"": 368, ""milliseconds"": 955, ""display"": NaN}, {""actual_row"": 385, ""state"": ""TimeOut"", ""cat"": ""Exit"", ""seconds"": 370, ""milliseconds"": 440, ""display"": ""Time""}, {""actual_row"": 386, ""state"": ""MagEntry"", ""cat"": ""Entry"", ""seconds"": 370, ""milliseconds"": 440, ""display"": NaN}]",360.185,361.41,0.855,361.41,0.0,,,,Omission,363.425,,,,
19,386,399,14,MagEntry -> On1A1 -> MagEntry -> ITI2sec -> Off1A1 -> ITI2sec -> RandomHole -> RandomHole -> hole3 -> On1A4 -> hole3 -> CorrectResp -> CorrectResp -> MagEntry,"[{""actual_row"": 386, ""state"": ""MagEntry"", ""cat"": ""Entry"", ""seconds"": 370, ""milliseconds"": 440, ""display"": NaN}, {""actual_row"": 387, ""state"": ""On1A1"", ""cat"": ""Input"", ""seconds"": 371, ""milliseconds"": 385, ""display"": NaN}, {""actual_row"": 388, ""state"": ""MagEntry"", ""cat"": ""Exit"", ""seconds"": 371, ""milliseconds"": 385, ""display"": ""1""}, {""actual_row"": 389, ""state"": ""ITI2sec"", ""cat"": ""Entry"", ""seconds"": 371, ""milliseconds"": 385, ""display"": NaN}, {""actual_row"": 390, ""state"": ""Off1A1"", ""cat"": ""Input"", ""seconds"": 372, ""milliseconds"": 700, ""display"": NaN}, {""actual_row"": 391, ""state"": ""ITI2sec"", ""cat"": ""Exit"", ""seconds"": 373, ""milliseconds"": 390, ""display"": ""Time""}, {""actual_row"": 392, ""state"": ""RandomHole"", ""cat"": ""Entry"", ""seconds"": 373, ""milliseconds"": 390, ""display"": NaN}, {""actual_row"": 393, ""state"": ""RandomHole"", ""cat"": ""Exit"", ""seconds"": 373, ""milliseconds"": 400, ""display"": ""Time""}, {""actual_row"": 394, ""state"": ""hole3"", ""cat"": ""Entry"", ""seconds"": 373, ""milliseconds"": 400, ""display"": NaN}, {""actual_row"": 395, ""state"": ""On1A4"", ""cat"": ""Input"", ""seconds"": 374, ""milliseconds"": 185, ""display"": NaN}, {""actual_row"": 396, ""state"": ""hole3"", ""cat"": ""Exit"", ""seconds"": 374, ""milliseconds"": 185, ""display"": ""4""}, {""actual_row"": 397, ""state"": ""CorrectResp"", ""cat"": ""Entry"", ""seconds"": 374, ""milliseconds"": 185, ""display"": NaN}, {""actual_row"": 398, ""state"": ""CorrectResp"", ""cat"": ""Exit"", ""seconds"": 374, ""milliseconds"": 190, ""display"": ""Time""}, {""actual_row"": 399, ""state"": ""MagEntry"", ""cat"": ""Entry"", ""seconds"": 374, ""milliseconds"": 190, ""display"": NaN}]",370.44,371.385,1.341,371.385,0.0,,CorrectResp,,,373.4,374.185,1.180,,
20,399,422,24,MagEntry -> Off1A4 -> On1A1 -> MagEntry -> ITI2sec -> Off1A1 -> ITI2sec -> RandomHole -> RandomHole -> hole4 -> hole4 -> Holdhole4 -> On1A1 -> Off1A1 -> Holdhole4 -> Omission -> Omission -> TimeOut -> On1A2 -> On1A3 -> Off1A2 -> Off1A3 -> TimeOut -> MagEntry,"[{""actual_row"": 399, ""state"": ""MagEntry"", ""cat"": ""Entry"", ""seconds"": 374, ""milliseconds"": 190, ""display"": NaN}, {""actual_row"": 400, ""state"": ""Off1A4"", ""cat"": ""Input"", ""seconds"": 375, ""milliseconds"": 175, ""display"": NaN}, {""actual_row"": 401, ""state"": ""On1A1"", ""cat"": ""Input"", ""seconds"": 379, ""milliseconds"": 855, ""display"": NaN}, {""actual_row"": 402, ""state"": ""MagEntry"", ""cat"": ""Exit"", ""seconds"": 379, ""milliseconds"": 855, ""display"": ""1""}, {""actual_row"": 403, ""state"": ""ITI2sec"", ""cat"": ""Entry"", ""seconds"": 379, ""milliseconds"": 855, ""display"": NaN}, {""actual_row"": 404, ""state"": ""Off1A1"", ""cat"": ""Input"", ""seconds"": 380, ""milliseconds"": 195, ""display"": NaN}, {""actual_row"": 405, ""state"": ""ITI2sec"", ""cat"": ""Exit"", ""seconds"": 381, ""milliseconds"": 860, ""display"": ""Time""}, {""actual_row"": 406, ""state"": ""RandomHole"", ""cat"": ""Entry"", ""seconds"": 381, ""milliseconds"": 860, ""display"": NaN}, {""actual_row"": 407, ""state"": ""RandomHole"", ""cat"": ""Exit"", ""seconds"": 381, ""milliseconds"": 870, ""display"": ""Time""}, {""actual_row"": 408, ""state"": ""hole4"", ""cat"": ""Entry"", ""seconds"": 381, ""milliseconds"": 870, ""display"": NaN}, {""actual_row"": 409, ""state"": ""hole4"", ""cat"": ""Exit"", ""seconds"": 382, ""milliseconds"": 870, ""display"": ""Time""}, {""actual_row"": 410, ""state"": ""Holdhole4"", ""cat"": ""Entry"", ""seconds"": 382, ""milliseconds"": 870, ""display"": NaN}, {""actual_row"": 411, ""state"": ""On1A1"", ""cat"": ""Input"", ""seconds"": 382, ""milliseconds"": 895, ""display"": NaN}, {""actual_row"": 412, ""state"": ""Off1A1"", ""cat"": ""Input"", ""seconds"": 383, ""milliseconds"": 235, ""display"": NaN}, {""actual_row"": 413, ""state"": ""Holdhole4"", ""cat"": ""Exit"", ""seconds"": 383, ""milliseconds"": 870, ""display"": ""Time""}, {""actual_row"": 414, ""state"": ""Omission"", ""cat"": ""Entry"", ""seconds"": 383, ""milliseconds"": 870, ""display"": NaN}, {""actual_row"": 415, ""state"": ""Omission"", ""cat"": ""Exit"", ""seconds"": 383, ""milliseconds"": 880, ""display"": ""Time""}, {""actual_row"": 416, ""state"": ""TimeOut"", ""cat"": ""Entry"", ""seconds"": 383, ""milliseconds"": 880, ""display"": NaN}, {""actual_row"": 417, ""state"": ""On1A2"", ""cat"": ""Input"", ""seconds"": 384, ""milliseconds"": 85, ""display"": NaN}, {""actual_row"": 418, ""state"": ""On1A3"", ""cat"": ""Input"", ""seconds"": 384, ""milliseconds"": 85, ""display"": NaN}, {""actual_row"": 419, ""state"": ""Off1A2"", ""cat"": ""Input"", ""seconds"": 385, ""milliseconds"": 75, ""display"": NaN}, {""actual_row"": 420, ""state"": ""Off1A3"", ""cat"": ""Input"", ""seconds"": 385, ""milliseconds"": 75, ""display"": NaN}, {""actual_row"": 421, ""state"": ""TimeOut"", ""cat"": ""Exit"", ""seconds"": 388, ""milliseconds"": 885, ""display"": ""Time""}, {""actual_row"": 422, ""state"": ""MagEntry"", ""cat"": ""Entry"", ""seconds"": 388, ""milliseconds"": 885, ""display"": NaN}]",374.19,379.855,5.836,379.855,0.0,,,,Omission,381.87,,,,
21,422,436,15,MagEntry -> On1A1 -> MagEntry -> ITI2sec -> Off1A1 -> ITI2sec -> RandomHole -> RandomHole -> hole5 -> On1A3 -> On1A4 -> hole5 -> CorrectResp -> CorrectResp -> MagEntry,"[{""actual_row"": 422, ""state"": ""MagEntry"", ""cat"": ""Entry"", ""seconds"": 388, ""milliseconds"": 885, ""display"": NaN}, {""actual_row"": 423, ""state"": ""On1A1"", ""cat"": ""Input"", ""seconds"": 390, ""milliseconds"": 735, ""display"": NaN}, {""actual_row"": 424, ""state"": ""MagEntry"", ""cat"": ""Exit"", ""seconds"": 390, ""milliseconds"": 735, ""display"": ""1""}, {""actual_row"": 425, ""state"": ""ITI2sec"", ""cat"": ""Entry"", ""seconds"": 390, ""milliseconds"": 735, ""display"": NaN}, {""actual_row"": 426, ""state"": ""Off1A1"", ""cat"": ""Input"", ""seconds"": 391, ""milliseconds"": 725, ""display"": NaN}, {""actual_row"": 427, ""state"": ""ITI2sec"", ""cat"": ""Exit"", ""seconds"": 392, ""milliseconds"": 740, ""display"": ""Time""}, {""actual_row"": 428, ""state"": ""RandomHole"", ""cat"": ""Entry"", ""seconds"": 392, ""milliseconds"": 740, ""display"": NaN}, {""actual_row"": 429, ""state"": ""RandomHole"", ""cat"": ""Exit"", ""seconds"": 392, ""milliseconds"": 750, ""display"": ""Time""}, {""actual_row"": 430, ""state"": ""hole5"", ""cat"": ""Entry"", ""seconds"": 392, ""milliseconds"": 750, ""display"": NaN}, {""actual_row"": 431, ""state"": ""On1A3"", ""cat"": ""Input"", ""seconds"": 393, ""milliseconds"": 405, ""display"": NaN}, {""actual_row"": 432, ""state"": ""On1A4"", ""cat"": ""Input"", ""seconds"": 393, ""milliseconds"": 405, ""display"": NaN}, {""actual_row"": 433, ""state"": ""hole5"", ""cat"": ""Exit"", ""seconds"": 393, ""milliseconds"": 405, ""display"": ""4""}, {""actual_row"": 434, ""state"": ""CorrectResp"", ""cat"": ""Entry"", ""seconds"": 393, ""milliseconds"": 405, ""display"": NaN}, {""actual_row"": 435, ""state"": ""CorrectResp"", ""cat"": ""Exit"", ""seconds"": 393, ""milliseconds"": 410, ""display"": ""Time""}, {""actual_row"": 436, ""state"": ""MagEntry"", ""cat"": ""Entry"", ""seconds"": 393, ""milliseconds"": 410, ""display"": NaN}]",388.885,390.735,1.85,390.735,0.0,,CorrectResp,,,392.75,393.405,1.329,,
22,436,454,19,MagEntry -> Off1A3 -> Off1A4 -> On1A3 -> Off1A3 -> On1A1 -> MagEntry -> ITI2sec -> Off1A1 -> ITI2sec -> RandomHole -> RandomHole -> hole4 -> On1A2 -> On1A3 -> hole4 -> CorrectResp -> CorrectResp -> MagEntry,"[{""actual_row"": 436, ""state"": ""MagEntry"", ""cat"": ""Entry"", ""seconds"": 393, ""milliseconds"": 410, ""display"": NaN}, {""actual_row"": 437, ""state"": ""Off1A3"", ""cat"": ""Input"", ""seconds"": 394, ""milliseconds"": 395, ""display"": NaN}, {""actual_row"": 438, ""state"": ""Off1A4"", ""cat"": ""Input"", ""seconds"": 394, ""milliseconds"": 395, ""display"": NaN}, {""actual_row"": 439, ""state"": ""On1A3"", ""cat"": ""Input"", ""seconds"": 395, ""milliseconds"": 30, ""display"": NaN}, {""actual_row"": 440, ""state"": ""Off1A3"", ""cat"": ""Input"", ""seconds"": 395, ""milliseconds"": 695, ""display"": NaN}, {""actual_row"": 441, ""state"": ""On1A1"", ""cat"": ""Input"", ""seconds"": 398, ""milliseconds"": 60, ""display"": NaN}, {""actual_row"": 442, ""state"": ""MagEntry"", ""cat"": ""Exit"", ""seconds"": 398, ""milliseconds"": 60, ""display"": ""1""}, {""actual_row"": 443, ""state"": ""ITI2sec"", ""cat"": ""Entry"", ""seconds"": 398, ""milliseconds"": 60, ""display"": NaN}, {""actual_row"": 444, ""state"": ""Off1A1"", ""cat"": ""Input"", ""seconds"": 398, ""milliseconds"": 725, ""display"": NaN}, {""actual_row"": 445, ""state"": ""ITI2sec"", ""cat"": ""Exit"", ""seconds"": 400, ""milliseconds"": 65, ""display"": ""Time""}, {""actual_row"": 446, ""state"": ""RandomHole"", ""cat"": ""Entry"", ""seconds"": 400, ""milliseconds"": 65, ""display"": NaN}, {""actual_row"": 447, ""state"": ""RandomHole"", ""cat"": ""Exit"", ""seconds"": 400, ""milliseconds"": 75, ""display"": ""Time""}, {""actual_row"": 448, ""state"": ""hole4"", ""cat"": ""Entry"", ""seconds"": 400, ""milliseconds"": 75, ""display"": NaN}, {""actual_row"": 449, ""state"": ""On1A2"", ""cat"": ""Input"", ""seconds"": 400, ""milliseconds"": 595, ""display"": NaN}, {""actual_row"": 450, ""state"": ""On1A3"", ""cat"": ""Input"", ""seconds"": 400, ""milliseconds"": 595, ""display"": NaN}, {""actual_row"": 451, ""state"": ""hole4"", ""cat"": ""Exit"", ""seconds"": 400, ""milliseconds"": 595, ""display"": ""3""}, {""actual_row"": 452, ""state"": ""CorrectResp"", ""cat"": ""Entry"", ""seconds"": 400, ""milliseconds"": 595, ""display"": NaN}, {""actual_row"": 453, ""state"": ""CorrectResp"", ""cat"": ""Exit"", ""seconds"": 400, ""milliseconds"": 600, ""display"": ""Time""}, {""actual_row"": 454, ""state"": ""MagEntry"", ""cat"": ""Entry"", ""seconds"": 400, ""milliseconds"": 600, ""display"": NaN}]",393.41,398.6,4.964,398.6,0.0,,CorrectResp,,,400.75,400.595,0.520,,
23,454,470,17,MagEntry -> Off1A2 -> Off1A3 -> On1A1 -> MagEntry -> ITI2sec -> Off1A1 -> ITI2sec -> RandomHole -> RandomHole -> hole5 -> On1A3 -> On1A4 -> hole5 -> CorrectResp -> CorrectResp -> MagEntry,"[{""actual_row"": 454, ""state"": ""MagEntry"", ""cat"": ""Entry"", ""seconds"": 400, ""milliseconds"": 600, ""display"": NaN}, {""actual_row"": 455, ""state"": ""Off1A2"", ""cat"": ""Input"", ""seconds"": 400, ""milliseconds"": 935, ""display"": NaN}, {""actual_row"": 456, ""state"": ""Off1A3"", ""cat"": ""Input"", ""seconds"": 400, ""milliseconds"": 935, ""display"": NaN}, {""actual_row"": 457, ""state"": ""On1A1"", ""cat"": ""Input"", ""seconds"": 401, ""milliseconds"": 251, ""display"": NaN}, {""actual_row"": 458, ""state"": ""MagEntry"", ""cat"": ""Exit"", ""seconds"": 401, ""milliseconds"": 251, ""display"": ""1""}, {""actual_row"": 459, ""state"": ""ITI2sec"", ""cat"": ""Entry"", ""seconds"": 401, ""milliseconds"": 251, ""display"": NaN}, {""actual_row"": 460, ""state"": ""Off1A1"", ""cat"": ""Input"", ""seconds"": 402, ""milliseconds"": 890, ""display"": NaN}, {""actual_row"": 461, ""state"": ""ITI2sec"", ""cat"": ""Exit"", ""seconds"": 403, ""milliseconds"": 255, ""display"": ""Time""}, {""actual_row"": 462, ""state"": ""RandomHole"", ""cat"": ""Entry"", ""seconds"": 403, ""milliseconds"": 255, ""display"": NaN}, {""actual_row"": 463, ""state"": ""RandomHole"", ""cat"": ""Exit"", ""seconds"": 403, ""milliseconds"": 265, ""display"": ""Time""}, {""actual_row"": 464, ""state"": ""hole5"", ""cat"": ""Entry"", ""seconds"": 403, ""milliseconds"": 265, ""display"": NaN}, {""actual_row"": 465, ""state"": ""On1A3"", ""cat"": ""Input"", ""seconds"": 404, ""milliseconds"": 45, ""display"": NaN}, {""actual_row"": 466, ""state"": ""On1A4"", ""cat"": ""Input"", ""seconds"": 404, ""milliseconds"": 45, ""display"": NaN}, {""actual_row"": 467, ""state"": ""hole5"", ""cat"": ""Exit"", ""seconds"": 404, ""milliseconds"": 45, ""display"": ""4""}, {""actual_row"": 468, ""state"": ""CorrectResp"", ""cat"": ""Entry"", ""seconds"": 404, ""milliseconds"": 45, ""display"": NaN}, {""actual_row"": 469, ""state"": ""CorrectResp"", ""cat"": ""Exit"", ""seconds"": 404, ""milliseconds"": 50, ""display"": ""Time""}, {""actual_row"": 470, ""state"": ""MagEntry"", ""cat"": ""Entry"", ""seconds"": 404, ""milliseconds"": 50, ""display"": NaN}]",400.6,401.251,1.245,401.251,0.0,,CorrectResp,,,403.265,404.45,0.780,,
24,470,486,17,MagEntry -> Off1A3 -> Off1A4 -> On1A1 -> MagEntry -> ITI2sec -> Off1A1 -> ITI2sec -> RandomHole -> RandomHole -> hole4 -> On1A2 -> On1A3 -> hole4 -> CorrectResp -> CorrectResp -> MagEntry,"[{""actual_row"": 470, ""state"": ""MagEntry"", ""cat"": ""Entry"", ""seconds"": 404, ""milliseconds"": 50, ""display"": NaN}, {""actual_row"": 471, ""state"": ""Off1A3"", ""cat"": ""Input"", ""seconds"": 404, ""milliseconds"": 385, ""display"": NaN}, {""actual_row"": 472, ""state"": ""Off1A4"", ""cat"": ""Input"", ""seconds"": 404, ""milliseconds"": 385, ""display"": NaN}, {""actual_row"": 473, ""state"": ""On1A1"", ""cat"": ""Input"", ""seconds"": 404, ""milliseconds"": 895, ""display"": NaN}, {""actual_row"": 474, ""state"": ""MagEntry"", ""cat"": ""Exit"", ""seconds"": 404, ""milliseconds"": 895, ""display"": ""1""}, {""actual_row"": 475, ""state"": ""ITI2sec"", ""cat"": ""Entry"", ""seconds"": 404, ""milliseconds"": 895, ""display"": NaN}, {""actual_row"": 476, ""state"": ""Off1A1"", ""cat"": ""Input"", ""seconds"": 406, ""milliseconds"": 215, ""display"": NaN}, {""actual_row"": 477, ""state"": ""ITI2sec"", ""cat"": ""Exit"", ""seconds"": 406, ""milliseconds"": 900, ""display"": ""Time""}, {""actual_row"": 478, ""state"": ""RandomHole"", ""cat"": ""Entry"", ""seconds"": 406, ""milliseconds"": 900, ""display"": NaN}, {""actual_row"": 479, ""state"": ""RandomHole"", ""cat"": ""Exit"", ""seconds"": 406, ""milliseconds"": 910, ""display"": ""Time""}, {""actual_row"": 480, ""state"": ""hole4"", ""cat"": ""Entry"", ""seconds"": 406, ""milliseconds"": 910, ""display"": NaN}, {""actual_row"": 481, ""state"": ""On1A2"", ""cat"": ""Input"", ""seconds"": 407, ""milliseconds"": 650, ""display"": NaN}, {""actual_row"": 482, ""state"": ""On1A3"", ""cat"": ""Input"", ""seconds"": 407, ""milliseconds"": 650, ""display"": NaN}, {""actual_row"": 483, ""state"": ""hole4"", ""cat"": ""Exit"", ""seconds"": 407, ""milliseconds"": 650, ""display"": ""3""}, {""actual_row"": 484, ""state"": ""CorrectResp"", ""cat"": ""Entry"", ""seconds"": 407, ""milliseconds"": 650, ""display"": NaN}, {""actual_row"": 485, ""state"": ""CorrectResp"", ""cat"": ""Exit"", ""seconds"": 407, ""milliseconds"": 655, ""display"": ""Time""}, {""actual_row"": 486, ""state"": ""MagEntry"", ""cat"": ""Entry"", ""seconds"": 407, ""milliseconds"": 655, ""display"": NaN}]",404.5,404.895,0.889,404.895,0.0,,CorrectResp,,,406.91,407.65,0.973,,
25,486,501,16,MagEntry -> Off1A2 -> Off1A3 -> On1A1 -> MagEntry -> ITI2sec -> Off1A1 -> ITI2sec -> RandomHole -> RandomHole -> hole2 -> On1A3 -> hole2 -> CorrectResp -> CorrectResp -> MagEntry,"[{""actual_row"": 486, ""state"": ""MagEntry"", ""cat"": ""Entry"", ""seconds"": 407, ""milliseconds"": 655, ""display"": NaN}, {""actual_row"": 487, ""state"": ""Off1A2"", ""cat"": ""Input"", ""seconds"": 407, ""milliseconds"": 991, ""display"": NaN}, {""actual_row"": 488, ""state"": ""Off1A3"", ""cat"": ""Input"", ""seconds"": 407, ""milliseconds"": 991, ""display"": NaN}, {""actual_row"": 489, ""state"": ""On1A1"", ""cat"": ""Input"", ""seconds"": 408, ""milliseconds"": 590, ""display"": NaN}, {""actual_row"": 490, ""state"": ""MagEntry"", ""cat"": ""Exit"", ""seconds"": 408, ""milliseconds"": 590, ""display"": ""1""}, {""actual_row"": 491, ""state"": ""ITI2sec"", ""cat"": ""Entry"", ""seconds"": 408, ""milliseconds"": 590, ""display"": NaN}, {""actual_row"": 492, ""state"": ""Off1A1"", ""cat"": ""Input"", ""seconds"": 409, ""milliseconds"": 905, ""display"": NaN}, {""actual_row"": 493, ""state"": ""ITI2sec"", ""cat"": ""Exit"", ""seconds"": 410, ""milliseconds"": 595, ""display"": ""Time""}, {""actual_row"": 494, ""state"": ""RandomHole"", ""cat"": ""Entry"", ""seconds"": 410, ""milliseconds"": 595, ""display"": NaN}, {""actual_row"": 495, ""state"": ""RandomHole"", ""cat"": ""Exit"", ""seconds"": 410, ""milliseconds"": 605, ""display"": ""Time""}, {""actual_row"": 496, ""state"": ""hole2"", ""cat"": ""Entry"", ""seconds"": 410, ""milliseconds"": 605, ""display"": NaN}, {""actual_row"": 497, ""state"": ""On1A3"", ""cat"": ""Input"", ""seconds"": 410, ""milliseconds"": 915, ""display"": NaN}, {""actual_row"": 498, ""state"": ""hole2"", ""cat"": ""Exit"", ""seconds"": 410, ""milliseconds"": 915, ""display"": ""3""}, {""actual_row"": 499, ""state"": ""CorrectResp"", ""cat"": ""Entry"", ""seconds"": 410, ""milliseconds"": 915, ""display"": NaN}, {""actual_row"": 500, ""state"": ""CorrectResp"", ""cat"": ""Exit"", ""seconds"": 410, ""milliseconds"": 920, ""display"": ""Time""}, {""actual_row"": 501, ""state"": ""MagEntry"", ""cat"": ""Entry"", ""seconds"": 410, ""milliseconds"": 920, ""display"": NaN}]",407.655,408.59,0.404,408.59,0.0,,CorrectResp,,,410.605,410.915,0.310,,
26,501,515,15,MagEntry -> Off1A3 -> On1A1 -> MagEntry -> ITI2sec -> Off1A1 -> ITI2sec -> RandomHole -> RandomHole -> hole3 -> On1A4 -> hole3 -> CorrectResp -> CorrectResp -> MagEntry,"[{""actual_row"": 501, ""state"": ""MagEntry"", ""cat"": ""Entry"", ""seconds"": 410, ""milliseconds"": 920, ""display"": NaN}, {""actual_row"": 502, ""state"": ""Off1A3"", ""cat"": ""Input"", ""seconds"": 411, ""milliseconds"": 255, ""display"": NaN}, {""actual_row"": 503, ""state"": ""On1A1"", ""cat"": ""Input"", ""seconds"": 411, ""milliseconds"": 770, ""display"": NaN}, {""actual_row"": 504, ""state"": ""MagEntry"", ""cat"": ""Exit"", ""seconds"": 411, ""milliseconds"": 770, ""display"": ""1""}, {""actual_row"": 505, ""state"": ""ITI2sec"", ""cat"": ""Entry"", ""seconds"": 411, ""milliseconds"": 770, ""display"": NaN}, {""actual_row"": 506, ""state"": ""Off1A1"", ""cat"": ""Input"", ""seconds"": 412, ""milliseconds"": 765, ""display"": NaN}, {""actual_row"": 507, ""state"": ""ITI2sec"", ""cat"": ""Exit"", ""seconds"": 413, ""milliseconds"": 775, ""display"": ""Time""}, {""actual_row"": 508, ""state"": ""RandomHole"", ""cat"": ""Entry"", ""seconds"": 413, ""milliseconds"": 775, ""display"": NaN}, {""actual_row"": 509, ""state"": ""RandomHole"", ""cat"": ""Exit"", ""seconds"": 413, ""milliseconds"": 785, ""display"": ""Time""}, {""actual_row"": 510, ""state"": ""hole3"", ""cat"": ""Entry"", ""seconds"": 413, ""milliseconds"": 785, ""display"": NaN}, {""actual_row"": 511, ""state"": ""On1A4"", ""cat"": ""Input"", ""seconds"": 414, ""milliseconds"": 770, ""display"": NaN}, {""actual_row"": 512, ""state"": ""hole3"", ""cat"": ""Exit"", ""seconds"": 414, ""milliseconds"": 770, ""display"": ""4""}, {""actual_row"": 513, ""state"": ""CorrectResp"", ""cat"": ""Entry"", ""seconds"": 414, ""milliseconds"": 770, ""display"": NaN}, {""actual_row"": 514, ""state"": ""CorrectResp"", ""cat"": ""Exit"", ""seconds"": 414, ""milliseconds"": 775, ""display"": ""Time""}, {""actual_row"": 515, ""state"": ""MagEntry"", ""cat"": ""Entry"", ""seconds"": 414, ""milliseconds"": 775, ""display"": NaN}]",410.92,411.77,0.985,411.77,0.0,,CorrectResp,,,413.785,414.77,0.291,,
27,515,529,15,MagEntry -> Off1A4 -> On1A1 -> MagEntry -> ITI2sec -> Off1A1 -> ITI2sec -> RandomHole -> RandomHole -> hole3 -> On1A4 -> hole3 -> CorrectResp -> CorrectResp -> MagEntry,"[{""actual_row"": 515, ""state"": ""MagEntry"", ""cat"": ""Entry"", ""seconds"": 414, ""milliseconds"": 775, ""display"": NaN}, {""actual_row"": 516, ""state"": ""Off1A4"", ""cat"": ""Input"", ""seconds"": 415, ""milliseconds"": 110, ""display"": NaN}, {""actual_row"": 517, ""state"": ""On1A1"", ""cat"": ""Input"", ""seconds"": 415, ""milliseconds"": 615, ""display"": NaN}, {""actual_row"": 518, ""state"": ""MagEntry"", ""cat"": ""Exit"", ""seconds"": 415, ""milliseconds"": 615, ""display"": ""1""}, {""actual_row"": 519, ""state"": ""ITI2sec"", ""cat"": ""Entry"", ""seconds"": 415, ""milliseconds"": 615, ""display"": NaN}, {""actual_row"": 520, ""state"": ""Off1A1"", ""cat"": ""Input"", ""seconds"": 416, ""milliseconds"": 605, ""display"": NaN}, {""actual_row"": 521, ""state"": ""ITI2sec"", ""cat"": ""Exit"", ""seconds"": 417, ""milliseconds"": 620, ""display"": ""Time""}, {""actual_row"": 522, ""state"": ""RandomHole"", ""cat"": ""Entry"", ""seconds"": 417, ""milliseconds"": 620, ""display"": NaN}, {""actual_row"": 523, ""state"": ""RandomHole"", ""cat"": ""Exit"", ""seconds"": 417, ""milliseconds"": 630, ""display"": ""Time""}, {""actual_row"": 524, ""state"": ""hole3"", ""cat"": ""Entry"", ""seconds"": 417, ""milliseconds"": 630, ""display"": NaN}, {""actual_row"": 525, ""state"": ""On1A4"", ""cat"": ""Input"", ""seconds"": 418, ""milliseconds"": 255, ""display"": NaN}, {""actual_row"": 526, ""state"": ""hole3"", ""cat"": ""Exit"", ""seconds"": 418, ""milliseconds"": 255, ""display"": ""4""}, {""actual_row"": 527, ""state"": ""CorrectResp"", ""cat"": ""Entry"", ""seconds"": 418, ""milliseconds"": 255, ""display"": NaN}, {""actual_row"": 528, ""state"": ""CorrectResp"", ""cat"": ""Exit"", ""seconds"": 418, ""milliseconds"": 260, ""display"": ""Time""}, {""actual_row"": 529, ""state"": ""MagEntry"", ""cat"": ""Entry"", ""seconds"": 418, ""milliseconds"": 260, ""display"": NaN}]",414.775,415.615,0.84,415.615,0.0,,CorrectResp,,,417.63,418.255,1.192,,
28,529,543,15,MagEntry -> Off1A4 -> On1A1 -> MagEntry -> ITI2sec -> Off1A1 -> ITI2sec -> RandomHole -> RandomHole -> hole3 -> On1A4 -> hole3 -> CorrectResp -> CorrectResp -> MagEntry,"[{""actual_row"": 529, ""state"": ""MagEntry"", ""cat"": ""Entry"", ""seconds"": 418, ""milliseconds"": 260, ""display"": NaN}, {""actual_row"": 530, ""state"": ""Off1A4"", ""cat"": ""Input"", ""seconds"": 418, ""milliseconds"": 595, ""display"": NaN}, {""actual_row"": 531, ""state"": ""On1A1"", ""cat"": ""Input"", ""seconds"": 419, ""milliseconds"": 80, ""display"": NaN}, {""actual_row"": 532, ""state"": ""MagEntry"", ""cat"": ""Exit"", ""seconds"": 419, ""milliseconds"": 80, ""display"": ""1""}, {""actual_row"": 533, ""state"": ""ITI2sec"", ""cat"": ""Entry"", ""seconds"": 419, ""milliseconds"": 80, ""display"": NaN}, {""actual_row"": 534, ""state"": ""Off1A1"", ""cat"": ""Input"", ""seconds"": 420, ""milliseconds"": 70, ""display"": NaN}, {""actual_row"": 535, ""state"": ""ITI2sec"", ""cat"": ""Exit"", ""seconds"": 421, ""milliseconds"": 85, ""display"": ""Time""}, {""actual_row"": 536, ""state"": ""RandomHole"", ""cat"": ""Entry"", ""seconds"": 421, ""milliseconds"": 85, ""display"": NaN}, {""actual_row"": 537, ""state"": ""RandomHole"", ""cat"": ""Exit"", ""seconds"": 421, ""milliseconds"": 95, ""display"": ""Time""}, {""actual_row"": 538, ""state"": ""hole3"", ""cat"": ""Entry"", ""seconds"": 421, ""milliseconds"": 95, ""display"": NaN}, {""actual_row"": 539, ""state"": ""On1A4"", ""cat"": ""Input"", ""seconds"": 421, ""milliseconds"": 755, ""display"": NaN}, {""actual_row"": 540, ""state"": ""hole3"", ""cat"": ""Exit"", ""seconds"": 421, ""milliseconds"": 755, ""display"": ""4""}, {""actual_row"": 541, ""state"": ""CorrectResp"", ""cat"": ""Entry"", ""seconds"": 421, ""milliseconds"": 755, ""display"": NaN}, {""actual_row"": 542, ""state"": ""CorrectResp"", ""cat"": ""Exit"", ""seconds"": 421, ""milliseconds"": 760, ""display"": ""Time""}, {""actual_row"": 543, ""state"": ""MagEntry"", ""cat"": ""Entry"", ""seconds"": 421, ""milliseconds"": 760, ""display"": NaN}]",418.26,419.8,0.981,419.8,0.0,,CorrectResp,,,421.95,421.755,0.659,,
29,543,564,22,MagEntry -> Off1A4 -> On1A1 -> MagEntry -> ITI2sec -> Off1A1 -> ITI2sec -> RandomHole -> RandomHole -> hole2 -> hole2 -> Holdhole2 -> Holdhole2 -> Omission -> Omission -> TimeOut -> On1A3 -> Off1A3 -> On1A2 -> Off1A2 -> TimeOut -> MagEntry,"[{""actual_row"": 543, ""state"": ""MagEntry"", ""cat"": ""Entry"", ""seconds"": 421, ""milliseconds"": 760, ""display"": NaN}, {""actual_row"": 544, ""state"": ""Off1A4"", ""cat"": ""Input"", ""seconds"": 422, ""milliseconds"": 420, ""display"": NaN}, {""actual_row"": 545, ""state"": ""On1A1"", ""cat"": ""Input"", ""seconds"": 422, ""milliseconds"": 845, ""display"": NaN}, {""actual_row"": 546, ""state"": ""MagEntry"", ""cat"": ""Exit"", ""seconds"": 422, ""milliseconds"": 845, ""display"": ""1""}, {""actual_row"": 547, ""state"": ""ITI2sec"", ""cat"": ""Entry"", ""seconds"": 422, ""milliseconds"": 845, ""display"": NaN}, {""actual_row"": 548, ""state"": ""Off1A1"", ""cat"": ""Input"", ""seconds"": 424, ""milliseconds"": 485, ""display"": NaN}, {""actual_row"": 549, ""state"": ""ITI2sec"", ""cat"": ""Exit"", ""seconds"": 424, ""milliseconds"": 850, ""display"": ""Time""}, {""actual_row"": 550, ""state"": ""RandomHole"", ""cat"": ""Entry"", ""seconds"": 424, ""milliseconds"": 850, ""display"": NaN}, {""actual_row"": 551, ""state"": ""RandomHole"", ""cat"": ""Exit"", ""seconds"": 424, ""milliseconds"": 860, ""display"": ""Time""}, {""actual_row"": 552, ""state"": ""hole2"", ""cat"": ""Entry"", ""seconds"": 424, ""milliseconds"": 860, ""display"": NaN}, {""actual_row"": 553, ""state"": ""hole2"", ""cat"": ""Exit"", ""seconds"": 425, ""milliseconds"": 860, ""display"": ""Time""}, {""actual_row"": 554, ""state"": ""Holdhole2"", ""cat"": ""Entry"", ""seconds"": 425, ""milliseconds"": 860, ""display"": NaN}, {""actual_row"": 555, ""state"": ""Holdhole2"", ""cat"": ""Exit"", ""seconds"": 426, ""milliseconds"": 860, ""display"": ""Time""}, {""actual_row"": 556, ""state"": ""Omission"", ""cat"": ""Entry"", ""seconds"": 426, ""milliseconds"": 860, ""display"": NaN}, {""actual_row"": 557, ""state"": ""Omission"", ""cat"": ""Exit"", ""seconds"": 426, ""milliseconds"": 870, ""display"": ""Time""}, {""actual_row"": 558, ""state"": ""TimeOut"", ""cat"": ""Entry"", ""seconds"": 426, ""milliseconds"": 870, ""display"": NaN}, {""actual_row"": 559, ""state"": ""On1A3"", ""cat"": ""Input"", ""seconds"": 427, ""milliseconds"": 90, ""display"": NaN}, {""actual_row"": 560, ""state"": ""Off1A3"", ""cat"": ""Input"", ""seconds"": 427, ""milliseconds"": 430, ""display"": NaN}, {""actual_row"": 561, ""state"": ""On1A2"", ""cat"": ""Input"", ""seconds"": 427, ""milliseconds"": 475, ""display"": NaN}, {""actual_row"": 562, ""state"": ""Off1A2"", ""cat"": ""Input"", ""seconds"": 428, ""milliseconds"": 140, ""display"": NaN}, {""actual_row"": 563, ""state"": ""TimeOut"", ""cat"": ""Exit"", ""seconds"": 431, ""milliseconds"": 875, ""display"": ""Time""}, {""actual_row"": 564, ""state"": ""MagEntry"", ""cat"": ""Entry"", ""seconds"": 431, ""milliseconds"": 875, ""display"": NaN}]",421.76,422.845,1.769,422.845,0.0,,,,Omission,424.86,,,,
30,564,588,25,MagEntry -> On1A3 -> On1A4 -> Off1A3 -> Off1A4 -> On1A1 -> MagEntry -> ITI2sec -> Off1A1 -> On1A1 -> ITI2sec -> RandomHole -> RandomHole -> hole3 -> Off1A1 -> hole3 -> Holdhole3 -> Holdhole3 -> Omission -> Omission -> TimeOut -> On1A4 -> Off1A4 -> TimeOut -> MagEntry,"[{""actual_row"": 564, ""state"": ""MagEntry"", ""cat"": ""Entry"", ""seconds"": 431, ""milliseconds"": 875, ""display"": NaN}, {""actual_row"": 565, ""state"": ""On1A3"", ""cat"": ""Input"", ""seconds"": 433, ""milliseconds"": 700, ""display"": NaN}, {""actual_row"": 566, ""state"": ""On1A4"", ""cat"": ""Input"", ""seconds"": 433, ""milliseconds"": 700, ""display"": NaN}, {""actual_row"": 567, ""state"": ""Off1A3"", ""cat"": ""Input"", ""seconds"": 434, ""milliseconds"": 35, ""display"": NaN}, {""actual_row"": 568, ""state"": ""Off1A4"", ""cat"": ""Input"", ""seconds"": 434, ""milliseconds"": 35, ""display"": NaN}, {""actual_row"": 569, ""state"": ""On1A1"", ""cat"": ""Input"", ""seconds"": 435, ""milliseconds"": 450, ""display"": NaN}, {""actual_row"": 570, ""state"": ""MagEntry"", ""cat"": ""Exit"", ""seconds"": 435, ""milliseconds"": 450, ""display"": ""1""}, {""actual_row"": 571, ""state"": ""ITI2sec"", ""cat"": ""Entry"", ""seconds"": 435, ""milliseconds"": 450, ""display"": NaN}, {""actual_row"": 572, ""state"": ""Off1A1"", ""cat"": ""Input"", ""seconds"": 436, ""milliseconds"": 115, ""display"": NaN}, {""actual_row"": 573, ""state"": ""On1A1"", ""cat"": ""Input"", ""seconds"": 436, ""milliseconds"": 735, ""display"": NaN}, {""actual_row"": 574, ""state"": ""ITI2sec"", ""cat"": ""Exit"", ""seconds"": 437, ""milliseconds"": 455, ""display"": ""Time""}, {""actual_row"": 575, ""state"": ""RandomHole"", ""cat"": ""Entry"", ""seconds"": 437, ""milliseconds"": 455, ""display"": NaN}, {""actual_row"": 576, ""state"": ""RandomHole"", ""cat"": ""Exit"", ""seconds"": 437, ""milliseconds"": 465, ""display"": ""Time""}, {""actual_row"": 577, ""state"": ""hole3"", ""cat"": ""Entry"", ""seconds"": 437, ""milliseconds"": 465, ""display"": NaN}, {""actual_row"": 578, ""state"": ""Off1A1"", ""cat"": ""Input"", ""seconds"": 437, ""milliseconds"": 725, ""display"": NaN}, {""actual_row"": 579, ""state"": ""hole3"", ""cat"": ""Exit"", ""seconds"": 438, ""milliseconds"": 465, ""display"": ""Time""}, {""actual_row"": 580, ""state"": ""Holdhole3"", ""cat"": ""Entry"", ""seconds"": 438, ""milliseconds"": 465, ""display"": NaN}, {""actual_row"": 581, ""state"": ""Holdhole3"", ""cat"": ""Exit"", ""seconds"": 438, ""milliseconds"": 470, ""display"": NaN}, {""actual_row"": 582, ""state"": ""Omission"", ""cat"": ""Entry"", ""seconds"": 438, ""milliseconds"": 470, ""display"": NaN}, {""actual_row"": 583, ""state"": ""Omission"", ""cat"": ""Exit"", ""seconds"": 438, ""milliseconds"": 480, ""display"": ""Time""}, {""actual_row"": 584, ""state"": ""TimeOut"", ""cat"": ""Entry"", ""seconds"": 438, ""milliseconds"": 480, ""display"": NaN}, {""actual_row"": 585, ""state"": ""On1A4"", ""cat"": ""Input"", ""seconds"": 438, ""milliseconds"": 485, ""display"": NaN}, {""actual_row"": 586, ""state"": ""Off1A4"", ""cat"": ""Input"", ""seconds"": 439, ""milliseconds"": 475, ""display"": NaN}, {""actual_row"": 587, ""state"": ""TimeOut"", ""cat"": ""Exit"", ""seconds"": 443, ""milliseconds"": 485, ""display"": ""Time""}, {""actual_row"": 588, ""state"": ""MagEntry"", ""cat"": ""Entry"", ""seconds"": 443, ""milliseconds"": 485, ""display"": NaN}]",431.875,435.45,3.17,435.45,0.0,,,,Omission,437.465,,,,
31,588,607,20,MagEntry -> On1A3 -> Off1A3 -> Off1A1 -> On1A3 -> Off1A3 -> On1A1 -> MagEntry -> ITI2sec -> Off1A1 -> ITI2sec -> RandomHole -> RandomHole -> hole5 -> On1A3 -> On1A4 -> hole5 -> CorrectResp -> CorrectResp -> MagEntry,"[{""actual_row"": 588, ""state"": ""MagEntry"", ""cat"": ""Entry"", ""seconds"": 443, ""milliseconds"": 485, ""display"": NaN}, {""actual_row"": 589, ""state"": ""On1A3"", ""cat"": ""Input"", ""seconds"": 445, ""milliseconds"": 235, ""display"": NaN}, {""actual_row"": 590, ""state"": ""Off1A3"", ""cat"": ""Input"", ""seconds"": 445, ""milliseconds"": 900, ""display"": NaN}, {""actual_row"": 591, ""state"": ""Off1A1"", ""cat"": ""Input"", ""seconds"": 448, ""milliseconds"": 345, ""display"": NaN}, {""actual_row"": 592, ""state"": ""On1A3"", ""cat"": ""Input"", ""seconds"": 450, ""milliseconds"": 640, ""display"": NaN}, {""actual_row"": 593, ""state"": ""Off1A3"", ""cat"": ""Input"", ""seconds"": 451, ""milliseconds"": 305, ""display"": NaN}, {""actual_row"": 594, ""state"": ""On1A1"", ""cat"": ""Input"", ""seconds"": 451, ""milliseconds"": 730, ""display"": NaN}, {""actual_row"": 595, ""state"": ""MagEntry"", ""cat"": ""Exit"", ""seconds"": 451, ""milliseconds"": 730, ""display"": ""1""}, {""actual_row"": 596, ""state"": ""ITI2sec"", ""cat"": ""Entry"", ""seconds"": 451, ""milliseconds"": 730, ""display"": NaN}, {""actual_row"": 597, ""state"": ""Off1A1"", ""cat"": ""Input"", ""seconds"": 452, ""milliseconds"": 395, ""display"": NaN}, {""actual_row"": 598, ""state"": ""ITI2sec"", ""cat"": ""Exit"", ""seconds"": 453, ""milliseconds"": 735, ""display"": ""Time""}, {""actual_row"": 599, ""state"": ""RandomHole"", ""cat"": ""Entry"", ""seconds"": 453, ""milliseconds"": 735, ""display"": NaN}, {""actual_row"": 600, ""state"": ""RandomHole"", ""cat"": ""Exit"", ""seconds"": 453, ""milliseconds"": 745, ""display"": ""Time""}, {""actual_row"": 601, ""state"": ""hole5"", ""cat"": ""Entry"", ""seconds"": 453, ""milliseconds"": 745, ""display"": NaN}, {""actual_row"": 602, ""state"": ""On1A3"", ""cat"": ""Input"", ""seconds"": 454, ""milliseconds"": 420, ""display"": NaN}, {""actual_row"": 603, ""state"": ""On1A4"", ""cat"": ""Input"", ""seconds"": 454, ""milliseconds"": 420, ""display"": NaN}, {""actual_row"": 604, ""state"": ""hole5"", ""cat"": ""Exit"", ""seconds"": 454, ""milliseconds"": 420, ""display"": ""4""}, {""actual_row"": 605, ""state"": ""CorrectResp"", ""cat"": ""Entry"", ""seconds"": 454, ""milliseconds"": 420, ""display"": NaN}, {""actual_row"": 606, ""state"": ""CorrectResp"", ""cat"": ""Exit"", ""seconds"": 454, ""milliseconds"": 425, ""display"": ""Time""}, {""actual_row"": 607, ""state"": ""MagEntry"", ""cat"": ""Entry"", ""seconds"": 454, ""milliseconds"": 425, ""display"": NaN}]",443.485,451.73,7.587,451.73,0.0,,CorrectResp,,,453.745,454.42,0.296,,
32,607,629,23,MagEntry -> Off1A3 -> Off1A4 -> On1A3 -> On1A4 -> Off1A3 -> Off1A4 -> On1A1 -> MagEntry -> ITI2sec -> Off1A1 -> ITI2sec -> RandomHole -> RandomHole -> hole4 -> hole4 -> Holdhole4 -> Holdhole4 -> Omission -> Omission -> TimeOut -> TimeOut -> MagEntry,"[{""actual_row"": 607, ""state"": ""MagEntry"", ""cat"": ""Entry"", ""seconds"": 454, ""milliseconds"": 425, ""display"": NaN}, {""actual_row"": 608, ""state"": ""Off1A3"", ""cat"": ""Input"", ""seconds"": 454, ""milliseconds"": 760, ""display"": NaN}, {""actual_row"": 609, ""state"": ""Off1A4"", ""cat"": ""Input"", ""seconds"": 454, ""milliseconds"": 760, ""display"": NaN}, {""actual_row"": 610, ""state"": ""On1A3"", ""cat"": ""Input"", ""seconds"": 454, ""milliseconds"": 790, ""display"": NaN}, {""actual_row"": 611, ""state"": ""On1A4"", ""cat"": ""Input"", ""seconds"": 454, ""milliseconds"": 790, ""display"": NaN}, {""actual_row"": 612, ""state"": ""Off1A3"", ""cat"": ""Input"", ""seconds"": 455, ""milliseconds"": 130, ""display"": NaN}, {""actual_row"": 613, ""state"": ""Off1A4"", ""cat"": ""Input"", ""seconds"": 455, ""milliseconds"": 130, ""display"": NaN}, {""actual_row"": 614, ""state"": ""On1A1"", ""cat"": ""Input"", ""seconds"": 455, ""milliseconds"": 715, ""display"": NaN}, {""actual_row"": 615, ""state"": ""MagEntry"", ""cat"": ""Exit"", ""seconds"": 455, ""milliseconds"": 715, ""display"": ""1""}, {""actual_row"": 616, ""state"": ""ITI2sec"", ""cat"": ""Entry"", ""seconds"": 455, ""milliseconds"": 715, ""display"": NaN}, {""actual_row"": 617, ""state"": ""Off1A1"", ""cat"": ""Input"", ""seconds"": 456, ""milliseconds"": 705, ""display"": NaN}, {""actual_row"": 618, ""state"": ""ITI2sec"", ""cat"": ""Exit"", ""seconds"": 457, ""milliseconds"": 720, ""display"": ""Time""}, {""actual_row"": 619, ""state"": ""RandomHole"", ""cat"": ""Entry"", ""seconds"": 457, ""milliseconds"": 720, ""display"": NaN}, {""actual_row"": 620, ""state"": ""RandomHole"", ""cat"": ""Exit"", ""seconds"": 457, ""milliseconds"": 730, ""display"": ""Time""}, {""actual_row"": 621, ""state"": ""hole4"", ""cat"": ""Entry"", ""seconds"": 457, ""milliseconds"": 730, ""display"": NaN}, {""actual_row"": 622, ""state"": ""hole4"", ""cat"": ""Exit"", ""seconds"": 458, ""milliseconds"": 730, ""display"": ""Time""}, {""actual_row"": 623, ""state"": ""Holdhole4"", ""cat"": ""Entry"", ""seconds"": 458, ""milliseconds"": 730, ""display"": NaN}, {""actual_row"": 624, ""state"": ""Holdhole4"", ""cat"": ""Exit"", ""seconds"": 459, ""milliseconds"": 730, ""display"": ""Time""}, {""actual_row"": 625, ""state"": ""Omission"", ""cat"": ""Entry"", ""seconds"": 459, ""milliseconds"": 730, ""display"": NaN}, {""actual_row"": 626, ""state"": ""Omission"", ""cat"": ""Exit"", ""seconds"": 459, ""milliseconds"": 740, ""display"": ""Time""}, {""actual_row"": 627, ""state"": ""TimeOut"", ""cat"": ""Entry"", ""seconds"": 459, ""milliseconds"": 740, ""display"": NaN}, {""actual_row"": 628, ""state"": ""TimeOut"", ""cat"": ""Exit"", ""seconds"": 464, ""milliseconds"": 745, ""display"": ""Time""}, {""actual_row"": 629, ""state"": ""MagEntry"", ""cat"": ""Entry"", ""seconds"": 464, ""milliseconds"": 745, ""display"": NaN}]",454.425,455.715,1.289,455.715,0.0,,,,Omission,457.73,,,,
33,629,653,25,MagEntry -> On1A1 -> MagEntry -> ITI2sec -> Off1A1 -> On1A3 -> ITI2sec -> Premature -> Premature -> TimeOut -> On1A4 -> Off1A3 -> Off1A4 -> On1A3 -> Off1A3 -> On1A2 -> On1A3 -> Off1A2 -> Off1A3 -> On1A3 -> On1A4 -> Off1A3 -> Off1A4 -> TimeOut -> MagEntry,"[{""actual_row"": 629, ""state"": ""MagEntry"", ""cat"": ""Entry"", ""seconds"": 464, ""milliseconds"": 745, ""display"": NaN}, {""actual_row"": 630, ""state"": ""On1A1"", ""cat"": ""Input"", ""seconds"": 472, ""milliseconds"": 260, ""display"": NaN}, {""actual_row"": 631, ""state"": ""MagEntry"", ""cat"": ""Exit"", ""seconds"": 472, ""milliseconds"": 260, ""display"": ""1""}, {""actual_row"": 632, ""state"": ""ITI2sec"", ""cat"": ""Entry"", ""seconds"": 472, ""milliseconds"": 260, ""display"": NaN}, {""actual_row"": 633, ""state"": ""Off1A1"", ""cat"": ""Input"", ""seconds"": 473, ""milliseconds"": 250, ""display"": NaN}, {""actual_row"": 634, ""state"": ""On1A3"", ""cat"": ""Input"", ""seconds"": 474, ""milliseconds"": 240, ""display"": NaN}, {""actual_row"": 635, ""state"": ""ITI2sec"", ""cat"": ""Exit"", ""seconds"": 474, ""milliseconds"": 240, ""display"": ""3""}, {""actual_row"": 636, ""state"": ""Premature"", ""cat"": ""Entry"", ""seconds"": 474, ""milliseconds"": 240, ""display"": NaN}, {""actual_row"": 637, ""state"": ""Premature"", ""cat"": ""Exit"", ""seconds"": 474, ""milliseconds"": 245, ""display"": ""Time""}, {""actual_row"": 638, ""state"": ""TimeOut"", ""cat"": ""Entry"", ""seconds"": 474, ""milliseconds"": 245, ""display"": NaN}, {""actual_row"": 639, ""state"": ""On1A4"", ""cat"": ""Input"", ""seconds"": 474, ""milliseconds"": 575, ""display"": NaN}, {""actual_row"": 640, ""state"": ""Off1A3"", ""cat"": ""Input"", ""seconds"": 474, ""milliseconds"": 580, ""display"": NaN}, {""actual_row"": 641, ""state"": ""Off1A4"", ""cat"": ""Input"", ""seconds"": 474, ""milliseconds"": 910, ""display"": NaN}, {""actual_row"": 642, ""state"": ""On1A3"", ""cat"": ""Input"", ""seconds"": 475, ""milliseconds"": 40, ""display"": NaN}, {""actual_row"": 643, ""state"": ""Off1A3"", ""cat"": ""Input"", ""seconds"": 475, ""milliseconds"": 380, ""display"": NaN}, {""actual_row"": 644, ""state"": ""On1A2"", ""cat"": ""Input"", ""seconds"": 475, ""milliseconds"": 721, ""display"": NaN}, {""actual_row"": 645, ""state"": ""On1A3"", ""cat"": ""Input"", ""seconds"": 475, ""milliseconds"": 721, ""display"": NaN}, {""actual_row"": 646, ""state"": ""Off1A2"", ""cat"": ""Input"", ""seconds"": 476, ""milliseconds"": 710, ""display"": NaN}, {""actual_row"": 647, ""state"": ""Off1A3"", ""cat"": ""Input"", ""seconds"": 476, ""milliseconds"": 710, ""display"": NaN}, {""actual_row"": 648, ""state"": ""On1A3"", ""cat"": ""Input"", ""seconds"": 476, ""milliseconds"": 790, ""display"": NaN}, {""actual_row"": 649, ""state"": ""On1A4"", ""cat"": ""Input"", ""seconds"": 476, ""milliseconds"": 790, ""display"": NaN}, {""actual_row"": 650, ""state"": ""Off1A3"", ""cat"": ""Input"", ""seconds"": 477, ""milliseconds"": 130, ""display"": NaN}, {""actual_row"": 651, ""state"": ""Off1A4"", ""cat"": ""Input"", ""seconds"": 477, ""milliseconds"": 130, ""display"": NaN}, {""actual_row"": 652, ""state"": ""TimeOut"", ""cat"": ""Exit"", ""seconds"": 479, ""milliseconds"": 250, ""display"": ""Time""}, {""actual_row"": 653, ""state"": ""MagEntry"", ""cat"": ""Entry"", ""seconds"": 479, ""milliseconds"": 250, ""display"": NaN}]",464.745,472.26,7.281,472.26,474.24,1.997,,,,,,,,
34,653,669,17,MagEntry -> On1A1 -> MagEntry -> ITI2sec -> Off1A1 -> ITI2sec -> RandomHole -> RandomHole -> hole4 -> hole4 -> Holdhole4 -> On1A2 -> On1A3 -> Holdhole4 -> CorrectResp -> CorrectResp -> MagEntry,"[{""actual_row"": 653, ""state"": ""MagEntry"", ""cat"": ""Entry"", ""seconds"": 479, ""milliseconds"": 250, ""display"": NaN}, {""actual_row"": 654, ""state"": ""On1A1"", ""cat"": ""Input"", ""seconds"": 483, ""milliseconds"": 100, ""display"": NaN}, {""actual_row"": 655, ""state"": ""MagEntry"", ""cat"": ""Exit"", ""seconds"": 483, ""milliseconds"": 100, ""display"": ""1""}, {""actual_row"": 656, ""state"": ""ITI2sec"", ""cat"": ""Entry"", ""seconds"": 483, ""milliseconds"": 100, ""display"": NaN}, {""actual_row"": 657, ""state"": ""Off1A1"", ""cat"": ""Input"", ""seconds"": 484, ""milliseconds"": 740, ""display"": NaN}, {""actual_row"": 658, ""state"": ""ITI2sec"", ""cat"": ""Exit"", ""seconds"": 485, ""milliseconds"": 105, ""display"": ""Time""}, {""actual_row"": 659, ""state"": ""RandomHole"", ""cat"": ""Entry"", ""seconds"": 485, ""milliseconds"": 105, ""display"": NaN}, {""actual_row"": 660, ""state"": ""RandomHole"", ""cat"": ""Exit"", ""seconds"": 485, ""milliseconds"": 115, ""display"": ""Time""}, {""actual_row"": 661, ""state"": ""hole4"", ""cat"": ""Entry"", ""seconds"": 485, ""milliseconds"": 115, ""display"": NaN}, {""actual_row"": 662, ""state"": ""hole4"", ""cat"": ""Exit"", ""seconds"": 486, ""milliseconds"": 115, ""display"": ""Time""}, {""actual_row"": 663, ""state"": ""Holdhole4"", ""cat"": ""Entry"", ""seconds"": 486, ""milliseconds"": 115, ""display"": NaN}, {""actual_row"": 664, ""state"": ""On1A2"", ""cat"": ""Input"", ""seconds"": 486, ""milliseconds"": 140, ""display"": NaN}, {""actual_row"": 665, ""state"": ""On1A3"", ""cat"": ""Input"", ""seconds"": 486, ""milliseconds"": 140, ""display"": NaN}, {""actual_row"": 666, ""state"": ""Holdhole4"", ""cat"": ""Exit"", ""seconds"": 486, ""milliseconds"": 140, ""display"": ""3""}, {""actual_row"": 667, ""state"": ""CorrectResp"", ""cat"": ""Entry"", ""seconds"": 486, ""milliseconds"": 140, ""display"": NaN}, {""actual_row"": 668, ""state"": ""CorrectResp"", ""cat"": ""Exit"", ""seconds"": 486, ""milliseconds"": 145, ""display"": ""Time""}, {""actual_row"": 669, ""state"": ""MagEntry"", ""cat"": ""Entry"", ""seconds"": 486, ""milliseconds"": 145, ""display"": NaN}]",479.25,483.1,3.975,483.1,0.0,,CorrectResp,,,485.115,486.14,0.899,,
